Frame,Sub Frame,EMG_A01,EMG_A02,EMG_A03,EMG_A04,EMG_A05,EMG_A06,EMG_A07,EMG_A08,EMG_A01_Accz,EMG_A02_Accz,EMG_A03_Accz,EMG_A04_Accz,EMG_A05_Accz,EMG_A06_Accz,EMG_A07_Accz,EMG_A08_Accz,FswA,FswB,EMG_B01,EMG_B02,EMG_B03,EMG_B04,EMG_B05,EMG_B06,EMG_B07,EMG_B08,EMG_B09,EMG_B10,EMG_B11,EMG_B12,Fx,Fy,Fz,Mx,My,Mz,Cx,Cy,Cz,1,2,3,4,5,6,7,8,9,10,11,12,13,14,15,16,1,2,3,4,5,6,7,8,9,10,11,12,13,14,15,16,1
653,0,-0.0128174,0.0205994,-0.0125122,-0.0151062,-0.0302124,0.0537109,0.0236511,0.063324,-0.0209045,0.0263977,-0.052948,-0.0209045,0.0112915,0.000305176,-0.0741577,-0.0457764,2.65991,2.63687,0.010376,0.00579834,0.0244141,0.0340271,0.00976562,0.0196838,0.0141907,-0.0564575,-0.0144958,0.027771,3.23776,3.26736,-0.0498453,0.027163,0.293205,-150.908,53.4476,32.5105,207.643,-1058.39,0.0770316,-0.0533295,-0.0962448,0.0110245,-0.0384521,0.0457001,0.0174713,-0.0844955,0.0025177,0.213737,0.191727,0.196533,0.228195,-0.160637,0.193367,-0.175705,0.19886,-0.0662231,0.0418091,0.194206,0.0272751,-0.0894547,-0.21389,0.0743484,0.118484,0.233002,-0.271454,-0.306396,-0.164948,-0.260468,-0.0512695,0.257492,-0.182724,-0.00671387
653,1,0.0320435,0.00946045,0.0158691,0.000305176,-0.0213623,0.109253,0.00808716,0.0765991,-0.042572,0.0143433,-0.096283,-0.0308228,0.0202942,-0.00427246,-0.0726318,-0.0325012,2.63214,2.6535,-0.00564575,-0.00839233,0.0126648,0.0218201,-0.0239563,0.0262451,0.0219727,0.00518799,0.0201416,-0.0151062,3.26904,3.2692,0.487827,-0.061591,0.292735,120.284,17.9523,69.9656,207.643,-1058.39,0.0770316,-0.0470352,-0.0704956,0.0186157,-0.0374222,0.0356293,0.0159454,-0.0993729,0.0117111,0.207825,0.174103,0.215416,0.204582,-0.168266,0.218277,-0.182076,0.225372,-0.0733566,0.0279236,0.16346,0.00347137,-0.098114,-0.226364,0.0721741,0.131493,0.20546,-0.274658,-0.304489,-0.16201,-0.226021,-0.0434494,0.283432,-0.17765,0.0143433
653,2,0.0109863,-0.00961304,-0.00854492,-0.0445557,-0.0506592,0.0727844,0.0175476,0.0827026,-0.0157166,-0.00350952,-0.0720215,-0.0273132,0.00900269,0.0154114,-0.0640869,-0.0570679,2.65686,2.66968,-0.00534058,0.01297,-0.0216675,0.0210571,-0.0408936,0.0364685,-0.00335693,-0.0413513,-0.0138855,-0.0108337,3.26981,3.27011,0.129458,-0.41708,0.293778,-105.696,53.4893,51.3119,207.643,-1058.39,0.0770316,-0.0435257,-0.0931931,-0.0109482,-0.0333023,0.0130463,0.0235748,-0.0885773,0.0231934,0.206528,0.201187,0.209236,0.220146,-0.163231,0.19722,-0.186844,0.219345,-0.052948,0.0256729,0.151825,0.0323486,-0.0892258,-0.217628,0.0676346,0.110207,0.211563,-0.221176,-0.301743,-0.156097,-0.236626,-0.0444031,0.278549,-0.183144,0.0192261
653,3,0.0106812,-0.00106812,0.00717163,-0.0567627,-0.0497437,0.0595093,0.0306702,0.0352478,-0.0167847,0.0288391,-0.0769043,-0.0396729,-0.017395,-0.0337219,-0.0663757,-0.0462341,2.65518,2.65411,-0.00717163,-0.00549316,-0.0302124,-0.00106812,-0.0390625,-0.00106812,-0.0138855,-0.0642395,0.0189209,0.00808716,3.25119,3.26828,-0.0494463,0.116648,0.650602,165.473,-88.9103,51.247,207.643,-1058.39,0.0770316,-0.0361633,-0.102348,-0.00728607,-0.00514984,0.0503159,0.00793457,-0.107384,0.0163651,0.204964,0.172272,0.211067,0.186615,-0.18013,0.193901,-0.180702,0.219688,-0.0517654,0.00141144,0.147629,0.0112534,-0.0470734,-0.218201,0.0785446,0.137711,0.209389,-0.259361,-0.314331,-0.154648,-0.232925,-0.0234985,0.273132,-0.197258,-0.0253296
653,4,-0.00366211,0.00991821,0.0169373,-0.0012207,-0.0164795,-0.0195312,0.00732422,0.00656128,-0.0227356,-0.00411987,-0.052948,-0.0267029,0.00991821,-0.00534058,-0.0621033,-0.0552368,2.66937,2.65305,0.0177002,0.00320435,-0.0180054,0.0120544,-0.0210571,-0.0216675,-0.00259399,-0.0408936,-0.0370789,-0.00808716,3.1572,3.15445,-0.0502106,-0.240032,-0.0638791,-105.741,-53.4482,-5.06208,207.643,-1058.39,0.0770316,-0.0255585,-0.103722,0.0101089,-0.0281906,0.0242615,0.0146866,-0.0761032,0.00038147,0.212631,0.197258,0.194168,0.221863,-0.153503,0.19783,-0.18425,0.183182,-0.0780869,0.0422668,0.186844,0.00556946,-0.050087,-0.189209,0.0395966,0.149269,0.251465,-0.274429,-0.275421,-0.144157,-0.19516,-0.0198746,0.298309,-0.115891,0.0195312
653,5,0.0131226,-0.00595093,0.0161743,0.0344849,0.00671387,-0.103912,0.0123596,-0.0289917,0.0100708,-0.00183105,-0.0814819,-0.0566101,0.0241089,0.00991821,-0.0759888,-0.0526428,2.67593,2.6532,0.018158,0.00564575,-0.0169373,0.0144958,0.000762939,-0.00167847,-0.00610352,-0.0297546,0.010376,0.0198364,3.0426,3.05069,-0.0519082,-0.0648377,-1.4944,-15.3827,-53.4644,-24.0212,171.899,-1048.12,0.100536,-0.0415421,-0.0979614,-0.0127792,-0.0362778,0.00644684,0.0390244,-0.0738907,0.00499725,0.19722,0.177689,0.208054,0.226212,-0.164108,0.174599,-0.171776,0.205917,-0.0663757,0.0380707,0.218582,0.0387192,-0.054512,-0.206337,0.0374985,0.130501,0.243721,-0.229187,-0.273857,-0.150185,-0.178986,-0.0483704,0.274582,-0.112915,0.0149536
653,6,0.00396729,0.0106812,0.0119019,0.0146484,-0.0144958,-0.129089,-0.00823975,-0.0733948,-0.038147,0.0169373,-0.091095,-0.0578308,0.00808716,-0.017395,-0.0723267,-0.0192261,2.6561,2.66449,-0.00686646,-0.0146484,-0.020752,0.0120544,-0.0134277,0.0228882,0.00442505,-0.0384521,0.0108337,-0.00167847,2.96478,2.95059,-0.317756,-0.415906,1.00941,-331.678,-17.8449,13.9922,207.643,-1058.39,0.0770316,-0.0387573,-0.0986099,-0.0120544,-0.0268555,0.0159836,0.0208282,-0.0873947,-0.00167847,0.196838,0.164299,0.206909,0.207825,-0.179825,0.205574,-0.180054,0.231171,-0.0421143,0.0496292,0.183563,0.0374985,-0.0624847,-0.185966,0.049324,0.145569,0.249825,-0.227165,-0.271416,-0.144997,-0.175285,-0.0474167,0.253143,-0.131073,0.00366211
653,7,0.00686646,0.0134277,0.0384521,-0.00762939,-0.0119019,-0.0772095,0.00595093,-0.0593567,-0.0253296,-0.0119019,-0.0579834,-0.0370789,0.010376,0.0234985,-0.0596619,-0.0502014,2.65732,2.63687,0.00335693,0.0263977,0.0138855,0.00335693,0.00396729,0.0175476,0.00549316,-0.0642395,0.00442505,-0.00274658,2.81555,2.84149,0.217751,-0.0635289,-0.779611,120.183,89.0449,-5.57562,207.643,-1058.39,0.0770316,-0.0192642,-0.0899887,-0.0173569,-0.0300598,0.0237274,0.0164795,-0.096817,0.000457764,0.202217,0.168839,0.215797,0.227966,-0.130043,0.19989,-0.18425,0.208626,-0.0379944,0.0395203,0.22747,0.0249863,-0.0542068,-0.212936,0.0455856,0.138245,0.238228,-0.241928,-0.300255,-0.153122,-0.155716,-0.0533676,0.291786,-0.128975,-0.00427246
653,8,0.00717163,0.000457764,0.0285339,0.0177002,0.0205994,-0.014801,0.00671387,-0.0489807,-0.0193787,-0.00595093,-0.0752258,-0.0494385,0.0157166,0.00274658,-0.0712585,-0.0430298,2.67105,2.64297,0.00305176,0.00976562,0.0546265,0.0178528,-0.00488281,0.0357056,-0.00595093,-0.0964355,0.00930786,-0.00839233,2.7388,2.76733,-0.0510594,-0.152435,-0.779142,165.336,53.3744,-43.2735,207.643,-1058.39,0.0770316,-0.0530243,-0.0626755,0.00423431,0.00537872,0.00221252,0.0343704,-0.0871658,0.00148773,0.213203,0.158539,0.221214,0.199661,-0.179253,0.18158,-0.172195,0.201836,-0.0545883,0.0458908,0.20649,0.04776,-0.0325012,-0.183792,0.0458527,0.136185,0.226479,-0.25631,-0.282669,-0.153618,-0.175934,-0.0284576,0.288162,-0.0986862,0.0216675
653,9,0.000610352,0.00946045,0.0341797,-0.00671387,0.0247192,-0.0315857,0.00747681,-0.0263977,-0.0205994,0.00549316,-0.0753784,-0.0436401,0.0157166,0.00152588,-0.0563049,-0.0541687,2.65472,2.64542,0.010376,0.0436401,0.0102234,0.00228882,0.0285339,0.00946045,0.00976562,-0.0997925,-0.022583,-0.00778198,-2.56531,-2.75558,0.666179,0.114895,-0.422892,29.8244,89.0611,13.3835,207.643,-1058.39,0.0770316,-0.0267792,-0.0844955,0.00179291,0.00354767,0.00888824,0.0701523,-0.0734329,0.00862122,0.226822,0.174866,0.200615,0.215416,-0.162354,0.188484,-0.168304,0.213547,-0.0554276,0.0556183,0.17067,0.0327682,-0.0712204,-0.197525,0.00900269,0.136108,0.227966,-0.244141,-0.28141,-0.172462,-0.20668,-0.0474167,0.275345,-0.109329,-0.000610352
654,0,-0.00946045,0.0357056,0.0442505,-0.00183105,-0.00259399,-0.0244141,0.0204468,-0.0410461,-0.0260925,-0.00305176,-0.0740051,-0.0387573,-0.0050354,-0.0123596,-0.057373,-0.0474548,2.64801,2.65137,0.00930786,0.0286865,0.00488281,0.000915527,-0.00579834,0.0218201,0.0157166,-0.143738,-0.00106812,-0.0012207,-3.16696,-3.16559,0.128957,0.0265676,-0.0645566,74.9305,-160.418,-99.3544,207.643,-1058.39,0.0770316,-0.022049,-0.0999832,-0.0109482,0.0257111,0.0222015,0.0572205,-0.0920868,-0.00823975,0.204582,0.1791,0.196228,0.200233,-0.174789,0.187111,-0.198326,0.211334,-0.0437164,0.0406265,0.192757,0.046463,-0.0621796,-0.206566,0.0236511,0.154877,0.24086,-0.242996,-0.268631,-0.126953,-0.17662,-0.0495529,0.268135,-0.13588,0.00488281
654,1,0.00106812,0.0265503,0.00701904,0.0363159,0.0349426,-0.0553894,0.000305176,-0.0588989,-0.0375366,0.00808716,-0.0784302,-0.0463867,0.0236511,0.00701904,-0.0466919,-0.0544739,2.64954,2.65747,0.0146484,-0.00457764,0.0543213,-0.0050354,0.00564575,-0.0437927,0.000152588,-0.125275,0.0209045,0.0152588,-3.16711,-3.17047,-0.137858,0.385084,1.7229,29.8263,-267.165,-42.5519,207.643,-1058.39,0.0770316,-0.0267792,-0.0801849,0.0247574,0.00827789,0.0107574,0.0370407,-0.086937,0.0161362,0.212708,0.181007,0.225868,0.216331,-0.180511,0.200348,-0.175781,0.188408,-0.0564194,0.0489044,0.16407,0.0886917,-0.100441,-0.211296,0.0306702,0.165329,0.262794,-0.254936,-0.268135,-0.111809,-0.139618,-0.0214767,0.257301,-0.107689,0.0088501
654,2,0.0120544,0.0289917,0.038147,0.0604248,0.0489807,-0.0514221,0.0224304,-0.070343,-0.03479,0.0195312,-0.0965881,-0.0384521,0.0271606,0.00762939,-0.070343,-0.0444031,2.64542,2.67929,0.00228882,0.0219727,0.0595093,0.0418091,-0.042572,0.0149536,-0.00534058,-0.162048,0.0302124,-0.0163269,-3.16254,-3.17841,-0.317459,0.206711,1.36586,-60.5478,160.303,32.2174,207.643,-1058.39,0.0770316,-0.0270844,-0.0860977,0.00465393,0.00488281,0.0243378,0.0563431,-0.0979233,0.0186539,0.193405,0.180855,0.210648,0.225601,-0.152168,0.163498,-0.192261,0.195465,-0.069809,0.0597763,0.158234,0.0626373,-0.0728989,-0.168457,0.0439453,0.173454,0.240059,-0.251694,-0.236893,-0.118942,-0.158386,-0.018158,0.25631,-0.0873566,0.0192261
654,3,-0.00259399,0.0172424,0.0204468,0.00305176,0.0402832,-0.0296021,-0.00427246,-0.058136,-0.0395203,0.0341797,-0.0494385,-0.0184631,0.0163269,0.0184631,-0.0700378,-0.0483704,2.66174,2.68936,0.00457764,0.0210571,0.0648499,0.0540161,-0.00961304,0.0144958,-0.0151062,-0.19577,0.00701904,-0.0189209,-3.18329,-3.19107,-0.0502275,-0.151177,-0.0640354,-150.922,124.673,32.3852,207.643,-1058.39,0.0770316,-0.0402069,-0.112267,-0.00823975,0.0126266,0.0263596,0.0588226,-0.0947571,0.0153732,0.226669,0.181465,0.22789,0.221825,-0.150337,0.183792,-0.187187,0.174599,-0.0543594,0.0527191,0.144424,0.0485992,-0.072937,-0.186234,0.0382614,0.170288,0.240288,-0.24807,-0.259209,-0.114899,-0.149612,-0.0126266,0.270157,-0.0725937,-0.00671387
654,4,0.0132751,0.0192261,-0.00152588,0.0286865,0.0384521,0.0144958,-0.00656128,-0.0715637,-0.0314331,0.00244141,-0.0636292,-0.0427246,0.00366211,0.000762939,-0.0639343,-0.0535583,2.68417,2.66052,0.0267029,0.0163269,0.0215149,0.0604248,0.0292969,0.0134277,-0.0140381,-0.22583,0.0154114,-0.000457764,-3.14987,-3.18344,-0.139853,-0.0623381,-0.0640874,300.83,231.397,-81.4525,207.643,-1058.39,0.0770316,-0.026474,-0.0904083,0.0265503,0.00705719,0.0279999,0.059967,-0.0906754,0.00732422,0.204544,0.168953,0.204506,0.212097,-0.15358,0.18116,-0.194473,0.207138,-0.0655746,0.0550842,0.156746,0.0630569,-0.0777054,-0.230904,0.0350571,0.169067,0.234833,-0.285797,-0.247726,-0.1437,-0.161247,0.0104141,0.245743,-0.0760269,0.00823975
654,5,0.0195312,0.0088501,0.0151062,0.00106812,0.0247192,0.0975037,0.0161743,-0.0733948,-0.0038147,0.0468445,-0.0778198,-0.0320435,0.00961304,0.0180054,-0.0575256,-0.0424194,2.63153,2.62924,0.0106812,0.0120544,0.0134277,0.0292969,0.000305176,0.0283813,0.00961304,-0.205383,0.0314331,0.0125122,-3.0719,-3.07358,-0.765088,0.207255,1.72394,165.249,53.2417,-118.689,207.643,-1058.39,0.0770316,-0.0263977,-0.100327,0.0133896,-0.0211716,0.00900269,0.0735092,-0.0999069,0.0476837,0.21843,0.171242,0.210381,0.222664,-0.17067,0.195007,-0.181694,0.21389,-0.0653839,0.0690842,0.17807,0.0701904,-0.0733948,-0.174561,0.0626755,0.166893,0.225754,-0.270844,-0.255051,-0.124893,-0.13649,-0.00205994,0.241318,-0.086441,-0.000305176
654,6,0.0271606,0.00808716,-0.00259399,0.0253296,-0.0180054,0.132751,0.0361633,-0.0559998,-0.0320435,-0.00106812,-0.0889587,-0.0437927,0.0317383,-0.000152588,-0.0588989,-0.0534058,2.6532,2.65076,0.00198364,0.0393677,-0.018158,0.0109863,0.040741,0.014801,0.0146484,-0.219421,0.0135803,-0.00411987,-3.00323,-3.022,-0.408731,0.204177,-0.0642436,120.242,124.757,50.9237,207.643,-1058.39,0.0770316,-0.0301361,-0.0902557,-0.00225067,-0.00797272,0.0145721,0.0619507,-0.103951,0.00473022,0.218277,0.158195,0.217133,0.206375,-0.1688,0.194016,-0.176544,0.215073,-0.069046,0.04673,0.178185,0.0882339,-0.0843048,-0.185776,0.0104904,0.150642,0.226631,-0.271187,-0.270805,-0.128174,-0.169754,-0.0144577,0.269585,-0.0814438,0.00610352
654,7,0.0154114,0.0245667,-0.00213623,-0.0224304,-0.0224304,0.0888062,-0.000915527,-0.032959,-0.0180054,0.0218201,-0.0765991,-0.0431824,0.00411987,-0.0152588,-0.045929,-0.0369263,2.65411,2.64832,-0.000457764,0.030365,-0.0415039,0.0247192,0.127411,0.0447083,0.0106812,-0.158844,0.00976562,-0.017395,-2.94403,-2.94876,0.0414449,-0.0591588,1.72347,-15.2308,-160.103,89.2906,207.643,-1058.39,0.0770316,-0.0370407,-0.110092,0.00988007,-0.00297546,0.0250244,0.0321198,-0.107498,0.0163651,0.1968,0.173721,0.203476,0.218315,-0.172844,0.196724,-0.183487,0.217133,-0.0667572,0.048027,0.159149,0.076828,-0.0851822,-0.209236,0.0196838,0.176582,0.230331,-0.261421,-0.232277,-0.149612,-0.172844,-0.00789642,0.251999,-0.0880814,0.022583
654,8,0.0119019,0.0152588,-0.0292969,-0.030365,0.000457764,0.100555,0.00747681,0.0404358,-0.018158,0.0131226,-0.0810242,-0.0436401,0.0305176,0.000305176,-0.0553894,-0.0448608,2.66556,2.66922,0.0192261,0.010376,-0.00473022,0.0151062,-0.000305176,0.0358582,-0.0276184,-0.159149,-0.0216675,0.00701904,-2.89612,-2.8801,0.308243,-0.32882,-0.0641398,-195.925,-53.1666,164.729,207.643,-1058.39,0.0770316,-0.0309372,-0.0830078,-0.000686646,-0.00801086,0.0118256,0.0437164,-0.0912476,0.0396347,0.204124,0.166283,0.227356,0.218201,-0.155067,0.206528,-0.199051,0.205956,-0.0335312,0.0522232,0.152969,0.0913239,-0.0977325,-0.196571,0.0367737,0.137596,0.223732,-0.236588,-0.205917,-0.124893,-0.135002,0.019455,0.289268,-0.0302124,-0.00762939
654,9,0.0265503,-0.000457764,-0.0167847,-0.0305176,0.00900269,0.121918,-0.018158,0.078125,-0.0291443,0.00274658,-0.0810242,-0.0216675,0.00991821,-0.0183105,-0.0869751,-0.0663757,2.67136,2.66739,0.0154114,0.0120544,0.00778198,0.0704956,-0.0260925,0.0231934,0.000915527,-0.134888,0.019989,-0.00228882,3.0838,3.10272,0.218049,0.559088,-0.423152,-60.5224,-89.0192,13.802,207.643,-1058.39,0.0770316,-0.0418854,-0.109825,-0.0126648,0.00595093,0.00587463,0.0528336,-0.0919342,-0.00205994,0.188179,0.165672,0.2388,0.202637,-0.168343,0.153961,-0.198517,0.208206,-0.0213623,0.0543594,0.160789,0.137558,-0.0922775,-0.192757,0.0707626,0.176849,0.235519,-0.211639,-0.200348,-0.135498,-0.135574,-0.0305557,0.299911,-0.0323486,-0.00732422
655,0,-0.00549316,0.00534058,-0.0213623,-0.0395203,0.0196838,0.093689,0.0469971,0.0431824,0.00274658,0.00488281,-0.0918579,-0.0402832,-0.0117493,-0.0242615,-0.0640869,-0.0569153,2.65747,2.61597,0.00961304,0.0445557,-0.00640869,0.0611877,-0.0442505,0.01297,-0.0250244,-0.121002,0.0239563,0.0178528,3.29315,3.30109,-0.0476981,-0.325113,2.0816,346.061,17.7294,-81.1292,207.643,-1058.39,0.0770316,-0.041275,-0.0940704,0.0160217,-0.0148773,0.0405121,0.0606918,-0.0947952,0.0274658,0.197601,0.148239,0.203743,0.196724,-0.177002,0.181847,-0.194778,0.199623,-0.0659561,0.0263214,0.159645,0.109634,-0.0933075,-0.180092,0.0527191,0.150223,0.22522,-0.23365,-0.216522,-0.129814,-0.14164,0.00385284,0.277977,-0.0649643,0.00335693
655,1,0.00152588,-0.0114441,-0.00289917,-0.0314331,-0.0344849,0.0544739,0.0357056,0.09552,-0.0318909,0.000152588,-0.106812,-0.0405884,0.00961304,0.00106812,-0.0769043,-0.0440979,2.66769,2.66479,0.0125122,0.00610352,-0.0437927,0.0810242,-0.0340271,-0.0538635,-0.0050354,-0.152283,0.00900269,0.0160217,3.26874,3.2666,0.128873,0.470844,-0.0653382,-60.573,-53.4729,-23.9687,207.643,-1058.39,0.0770316,-0.0296021,-0.101929,0.00385284,0.00659943,0.0104141,0.0497437,-0.111732,0.014534,0.207443,0.158577,0.202446,0.221252,-0.178947,0.217705,-0.169601,0.235023,-0.0253296,0.0583649,0.14019,0.128059,-0.0961685,-0.198135,0.0364685,0.175552,0.217285,-0.262947,-0.194511,-0.141487,-0.116196,-0.0226974,0.26226,-0.0572968,-0.00549316
655,2,0.0242615,-0.00274658,-0.0115967,-0.0170898,-0.0750732,0.0262451,0.00167847,0.116577,-0.0183105,-0.00213623,-0.0791931,-0.0456238,0.0125122,-0.00518799,-0.0636292,-0.065918,2.63657,2.64175,0.0120544,0.00732422,0.000610352,0.0292969,-0.00915527,-0.0320435,-0.0154114,-0.0921631,0.0227356,0.0167847,3.28156,3.27805,-0.407051,0.117838,1.36613,-151.004,-17.9436,-61.6341,207.643,-1058.39,0.0770316,-0.0468445,-0.0969696,-0.0107956,0.0110245,0.012207,0.0421524,-0.0830078,0.00869751,0.194588,0.160522,0.205803,0.19207,-0.140114,0.159988,-0.187149,0.197067,-0.0153732,0.0583649,0.128555,0.107498,-0.134354,-0.206451,0.0278854,0.174942,0.211983,-0.237541,-0.189095,-0.110893,-0.148582,-0.0102997,0.255661,-0.055542,-0.00518799
655,3,0.00640869,-0.0180054,0.00259399,-0.000915527,-0.115662,0.0221252,-0.00534058,0.143127,-0.035553,0.0288391,-0.0704956,-0.0283813,0.0187683,0.0352478,-0.0669861,-0.0262451,2.66037,2.65198,-0.0152588,0.0369263,0.0205994,0.0187683,0.00839233,-0.00564575,-0.01297,-0.115662,-0.00747681,-0.0120544,3.24982,3.26065,-0.0494463,0.116648,0.650602,-15.3388,-53.398,13.6867,207.643,-1058.39,0.0770316,-0.0461578,-0.0767517,0.000152588,-0.00038147,0.02491,0.0295639,-0.104942,0.030098,0.201073,0.177231,0.226555,0.198631,-0.149269,0.177536,-0.171356,0.200081,-0.00743866,0.0547409,0.143623,0.130692,-0.103569,-0.190887,0.00896454,0.153313,0.243034,-0.211296,-0.187569,-0.120392,-0.139847,-0.0217438,0.271263,-0.0719452,-0.00518799
655,4,-0.0183105,0.0210571,0.000305176,0.0431824,-0.0616455,0.0296021,-0.00473022,0.0999451,-0.0456238,-0.000152588,-0.0904846,-0.0331116,0.0233459,-0.0012207,-0.0737,-0.0561523,2.63321,2.66129,0.00808716,-0.00915527,0.0187683,0.020752,-0.0117493,0.00137329,0.0387573,-0.137787,-0.0276184,-0.00595093,3.16269,3.18695,-0.0510425,-0.24129,-0.778985,74.9522,302.712,-5.89896,207.643,-1058.39,0.0770316,-0.0270081,-0.0973892,-0.00598907,-0.00087738,0.0273132,0.0422668,-0.116806,0.0284958,0.191231,0.16407,0.224228,0.187607,-0.132103,0.192986,-0.183945,0.199165,-0.0322342,0.0404358,0.155487,0.128326,-0.0821686,-0.196953,0.016098,0.164528,0.244484,-0.216446,-0.189629,-0.11982,-0.133209,-0.023613,0.260048,-0.0795746,0.00213623
655,5,-0.0190735,0.00289917,-0.00534058,0.0448608,0.0718689,0.00762939,-0.0050354,0.12558,-0.0205994,0.0161743,-0.0862122,-0.0534058,0.0131226,-0.0186157,-0.0709534,-0.0447083,2.64389,2.67044,0.022583,0.017395,0.00320435,0.0108337,-0.0491333,0.0105286,0.00793457,-0.109253,0.0125122,-0.00549316,3.04718,3.07343,-0.229828,-0.32955,-0.421068,-15.3675,-17.8186,-5.22991,207.643,-1058.39,0.0770316,-0.042305,-0.0978088,0.0101852,0.00720978,-0.00476837,0.0646591,-0.105705,0.0363922,0.197792,0.166817,0.220222,0.189362,-0.17498,0.194664,-0.193291,0.208549,-0.020752,0.0591278,0.114975,0.107079,-0.132217,-0.188446,0.0408554,0.151215,0.237579,-0.22068,-0.168381,-0.0910568,-0.155754,0.0395966,0.254364,-0.0857925,0.0106812
655,6,0.00167847,0.00320435,0.000762939,0.0230408,0.0967407,0.00686646,0.0187683,0.102234,-0.00320435,0.0126648,-0.0724792,-0.0177002,0.0280762,-0.00717163,-0.0447083,-0.045929,2.64694,2.63336,-0.00778198,0.0169373,-0.000915527,-0.0100708,-0.065155,0.0306702,-0.0408936,-0.0209045,0.00656128,0.025177,2.95425,2.9744,0.128041,0.469586,-0.780445,-15.3523,17.8273,13.5614,207.643,-1058.39,0.0770316,-0.0321579,-0.097084,-0.00507355,-0.0297546,0.0318146,0.056572,-0.0951767,0.0315475,0.199127,0.165672,0.226555,0.181465,-0.152054,0.205727,-0.194092,0.20134,-0.0273132,0.0686264,0.103683,0.107841,-0.087204,-0.199318,0.0406265,0.15358,0.240021,-0.213814,-0.184631,-0.097084,-0.120201,0.0371552,0.258942,-0.063591,0.0201416
655,7,0.00793457,0.00991821,-0.0012207,0.0727844,0.0543213,0.0398254,0.0112915,0.116425,-0.0242615,0.0166321,-0.0915527,-0.0439453,0.0166321,0.00823975,-0.065918,-0.0592041,2.65366,2.6387,0.00335693,-0.00595093,0.0115967,0.0117493,0.0424194,0.0465393,-0.0692749,-0.0167847,0.0227356,0.000152588,2.845,2.87094,-0.0514585,-0.241919,-1.13654,-105.552,-124.408,145.895,98.0019,-965.409,0.0409765,-0.0162888,-0.0779343,0.0135803,0.00484467,0.0223923,0.0511551,-0.0809097,0.0286102,0.186386,0.167351,0.192795,0.195427,-0.153198,0.189705,-0.160446,0.204926,-0.00564575,0.0907898,0.120583,0.113335,-0.0931549,-0.204659,0.0324631,0.121994,0.202904,-0.241394,-0.186539,-0.0937271,-0.151901,0.034256,0.257072,-0.0908661,-0.00579834
655,8,0.0038147,-0.00808716,0.0012207,0.0592041,0.00946045,0.0117493,0.0215149,0.0839233,-0.00823975,0.00534058,-0.0935364,-0.0256348,0.0151062,-0.0158691,-0.0346375,-0.0564575,2.67136,2.63596,0.0308228,0.00457764,-0.00411987,-0.0302124,0.13504,0.0289917,-0.00213623,0.0193787,-0.00198364,0.0398254,2.74536,2.76321,0.126079,-0.155547,-2.56712,74.9135,160.162,-62.2103,270.073,-1087.6,0.0557995,-0.0450516,-0.116196,0.0043869,-0.00198364,0.0253677,0.0471497,-0.10643,0.0291443,0.194397,0.189629,0.212708,0.180321,-0.16674,0.173531,-0.184822,0.203133,-0.018425,0.0597382,0.105667,0.126038,-0.113258,-0.224648,0.0450516,0.15049,0.214272,-0.241814,-0.183754,-0.0905609,-0.129814,0.039711,0.255318,-0.0838089,0.00183105
655,9,-0.000152588,0.0186157,0.0135803,0.117035,0.0195312,0.0344849,0.01297,0.0923157,-0.0367737,0.00396729,-0.0723267,-0.062561,0.0138855,-0.0300598,-0.0643921,-0.0695801,2.64557,2.62955,0.0305176,-0.0062561,-0.0134277,-0.052948,0.132904,-0.00106812,-0.0514221,0.00808716,0.0521851,0.0405884,-2.66312,-2.47253,0.220646,0.0297301,1.72311,75.2376,-159.954,164.601,207.643,-1058.39,0.0770316,-0.0405502,-0.0611115,-0.00423431,0.00461578,0.0479126,0.0457764,-0.0922775,-0.00312805,0.245628,0.201912,0.222816,0.199738,-0.15255,0.179787,-0.206985,0.19371,-0.038147,0.0551605,0.104103,0.105667,-0.109215,-0.203247,0.0509262,0.16201,0.222664,-0.225601,-0.178223,-0.107841,-0.137978,0.0403595,0.26165,-0.0658035,0.0088501
656,0,0.0218201,-0.00595093,0.039978,0.0338745,0.0254822,0.0198364,0.010376,0.0637817,-0.00427246,-0.000762939,-0.0872803,-0.0450134,0.0125122,-0.00778198,-0.0566101,-0.043335,2.62421,2.67136,-0.00396729,0.0227356,0.0177002,-0.0413513,0.114288,0.00732422,-0.0210571,0.00457764,-0.0180054,0.0105286,-3.17123,-3.16284,0.12939,-0.0616584,0.293152,300.96,124.725,13.0054,207.643,-1058.39,0.0770316,-0.0458527,-0.0513458,0.000686646,-0.00865936,0.0424576,0.0475311,-0.0912857,0.0124741,0.215263,0.192604,0.231857,0.213852,-0.1614,0.184898,-0.188828,0.187607,0.00709534,0.062027,0.104637,0.111923,-0.103264,-0.190544,0.0320816,0.149689,0.238724,-0.222511,-0.185471,-0.0971222,-0.111008,0.038147,0.258141,-0.0914001,0.0109863
656,1,-0.0114441,0.0164795,-0.00106812,-0.0434875,0.0283813,0.00518799,-0.0138855,0.0222778,-0.01297,0.00717163,-0.0802612,-0.0352478,0.00823975,-0.0204468,-0.0686646,-0.0360107,2.66205,2.65381,0.00671387,0.0276184,0.0012207,-0.0198364,0.106506,-0.0337219,0.042572,-0.0205994,-0.00274658,0.0271606,-3.1517,-3.17993,0.0400789,0.560941,0.649716,165.358,53.4076,-24.4195,207.643,-1058.39,0.0770316,-0.0269699,-0.0688553,-0.0110245,0.0157166,0.0257874,0.0284576,-0.0962067,0.0374985,0.22747,0.208435,0.234718,0.172958,-0.179176,0.195274,-0.165405,0.227127,-0.0300217,0.0516891,0.146484,0.114632,-0.100784,-0.187988,0.0373077,0.142174,0.213432,-0.248947,-0.188828,-0.0903702,-0.129013,0.0504303,0.224266,-0.0902176,-0.0134277
656,2,0.00808716,0.0131226,-0.00991821,0.00442505,0.0140381,-0.0163269,0.0343323,0.0140381,-0.00564575,0.0192261,-0.0413513,-0.0294495,0.0256348,0.0184631,-0.0666809,-0.0382996,2.64542,2.6651,0.0106812,0.0276184,0.00686646,0.00259399,0.0924683,-0.0158691,0.0839233,-0.0305176,0.0184631,0.0393677,-3.18436,-3.17581,-0.229811,-0.418406,-0.420912,120.311,-124.498,70.2162,207.643,-1058.39,0.0770316,-0.0422668,-0.0697708,0.0131607,-0.0260925,0.0348663,0.0507355,-0.0993729,0.0278473,0.245857,0.212173,0.256271,0.232124,-0.163994,0.203362,-0.184517,0.182495,-0.0315857,0.0632477,0.121078,0.100937,-0.149231,-0.233154,0.0399399,0.130157,0.236664,-0.157471,-0.166321,-0.1091,-0.097084,0.0437164,0.232391,-0.105324,0.00518799
656,3,0.0213623,-0.00946045,0.025177,0.0231934,0.00183105,0.0050354,0.0221252,0.0341797,0.000457764,0.00549316,-0.111847,-0.0546265,-0.00473022,0.00442505,-0.0444031,-0.0469971,2.65442,2.64542,0.00198364,0.0163269,0.022583,0.0234985,0.0628662,0.0180054,0.0808716,-0.0630188,0.00518799,0.0382996,-3.19229,-3.14514,-0.0498791,0.204874,0.292892,-60.4904,89.1436,70.0506,207.643,-1058.39,0.0770316,-0.0234985,-0.0566864,-0.0376892,-0.00160217,0.028801,0.0545502,-0.0898743,0.0110626,0.219574,0.200081,0.234642,0.189781,-0.1577,0.18692,-0.177803,0.22686,-0.0326538,0.0801849,0.13195,0.0809479,-0.11734,-0.198593,0.0494385,0.134811,0.230484,-0.13752,-0.131416,-0.120964,-0.107536,0.0453949,0.191879,-0.109406,0.000915527
656,4,0.0169373,-0.00320435,0.030365,0.0558472,0.0114441,0.00366211,0.0134277,0.0386047,-0.019989,0.0193787,-0.0975037,-0.0547791,0.00335693,-0.0219727,-0.06073,-0.0398254,2.64282,2.64053,-0.00366211,0.0315857,0.018158,-0.0138855,-0.0177002,0.0157166,0.0636292,0.0228882,-0.00335693,0.0260925,-3.13782,-3.15033,0.21815,0.0259553,-0.422215,210.601,124.741,31.9645,207.643,-1058.39,0.0770316,-0.0350189,-0.0500488,0.0131989,-0.00396729,0.0315857,0.0458527,-0.087471,0.0137711,0.227165,0.201454,0.233498,0.195351,-0.18013,0.195236,-0.179138,0.215149,-0.0212479,0.0589371,0.110855,0.110703,-0.133171,-0.220032,0.0621033,0.136261,0.258636,-0.135155,-0.113602,-0.119781,-0.0922012,0.0201797,0.202446,-0.106812,-0.00579834
656,5,0.0219727,0.0169373,0.0259399,0.0682068,0.0308228,0.0100708,0.00640869,0.00534058,-0.0201416,0.00488281,-0.0601196,-0.045166,0.0205994,-0.014801,-0.0701904,-0.0460815,2.68845,2.66449,0.00732422,0.00411987,-0.000152588,-0.00640869,-0.052948,0.0331116,0.00839233,0.0480652,-0.00411987,0.00228882,-3.07663,-3.11264,0.0380667,0.202374,-1.13742,-105.858,-18.0014,-99.3946,191.965,-965.391,-0.0683635,-0.0380707,-0.0522995,0.0124359,-0.0161362,0.0432968,0.0375748,-0.0912857,0.00141144,0.219269,0.203896,0.236206,0.185699,-0.16655,0.172119,-0.187492,0.222855,-0.0536728,0.0656891,0.131226,0.0867462,-0.13382,-0.206108,0.0467682,0.138588,0.244637,-0.140915,-0.148392,-0.122986,-0.105476,0.0534439,0.219765,-0.0862885,0.0109863
656,6,-0.00213623,-0.01297,0.00320435,0.0112915,0.00839233,0.0216675,-0.0131226,-0.00732422,-0.0161743,0.0106812,-0.071106,-0.0447083,0.00366211,0.000915527,-0.0621033,-0.0483704,2.64038,2.62085,0.0318909,0.0106812,0.0340271,-0.00518799,-0.113678,0.0271606,-0.113068,0.0987244,0.0105286,0.00747681,-2.99988,-3.01147,-0.409979,0.20229,-1.1369,165.574,-160.003,126.788,66.7261,-1203.88,0.496958,-0.0568008,-0.0606537,0.00602722,0.0056839,-0.0140762,0.0473785,-0.0996399,0.0259018,0.243683,0.194702,0.234489,0.197563,-0.1577,0.177689,-0.171661,0.204659,-0.0408936,0.0508881,0.122185,0.110703,-0.11982,-0.202446,0.0611115,0.125465,0.248756,-0.126076,-0.147514,-0.111504,-0.100288,0.040741,0.22049,-0.101089,0.00305176
656,7,0.00915527,0.0134277,0.0245667,0.014801,0.0283813,0.00701904,0.00579834,-0.0088501,-0.00686646,-0.0291443,-0.10025,-0.0712585,0.0050354,-0.0218201,-0.0550842,-0.0393677,2.67456,2.63672,0.0260925,0.0192261,0.00167847,-0.00656128,-0.196991,0.0233459,-0.138245,0.110931,-0.0012207,0.0166321,-2.92831,-2.9599,-0.140286,0.0258879,-0.421797,165.411,124.732,32.0171,207.643,-1058.39,0.0770316,-0.0344086,-0.0802231,0.0187302,0.00492096,-0.0230026,0.0463104,-0.0899506,-0.000228882,0.211639,0.157051,0.233345,0.176048,-0.172806,0.205994,-0.18261,0.214195,-0.0307083,0.0570297,0.148354,0.132217,-0.11982,-0.21904,0.0555801,0.116158,0.214691,-0.118523,-0.137329,-0.108757,-0.0757599,0.039978,0.224609,-0.106049,0.00793457
656,8,-0.0144958,0.0190735,0.0282288,0.0726318,0.0119019,0.00183105,0.0100708,-0.0233459,-0.0274658,-0.014801,-0.0959778,-0.0442505,-0.00152588,0.00213623,-0.0724792,-0.0369263,2.6828,2.64359,0.00396729,0.0254822,0.00213623,0.0334167,-0.106354,0.0233459,-0.0234985,0.147247,0.00442505,0.0144958,-2.892,-2.85797,-0.229828,-0.32955,-0.421068,-422.153,17.6181,-61.3812,207.643,-1058.39,0.0770316,-0.031662,-0.072937,0.000991821,0.0166321,-0.0113297,0.063858,-0.106621,-0.000686646,0.220108,0.186195,0.251808,0.188065,-0.186386,0.197983,-0.172272,0.20546,-0.0345993,0.0537109,0.113792,0.107079,-0.118256,-0.227814,0.030632,0.108986,0.236435,-0.119591,-0.122681,-0.103951,-0.0703049,0.0229263,0.213776,-0.0918961,-0.0344849
656,9,-0.0469971,0.00213623,0.0422668,0.071106,0.0184631,-0.00366211,-0.00213623,-0.0401306,-0.0120544,-0.00228882,-0.0871277,-0.0360107,0.0106812,-0.0120544,-0.0566101,-0.057373,2.67761,2.65045,0.0215149,0.0447083,0.0144958,0.0369263,0.102539,0.0454712,0.00213623,0.171814,0.0395203,0.0180054,3.09708,3.06854,0.219781,0.206183,1.00769,-60.5662,-89.0855,-23.906,207.643,-1058.39,0.0770316,-0.0360107,-0.065155,-0.0389481,0.022316,-0.0239944,0.0484085,-0.0908661,0.0278091,0.219498,0.205421,0.222969,0.183296,-0.15831,0.20916,-0.178719,0.19104,-0.0241089,0.0664902,0.0653076,0.112381,-0.130348,-0.231819,0.0892258,0.0973129,0.243149,-0.115623,-0.131493,-0.0894928,-0.109634,0.0691986,0.216141,-0.124283,0.0186157
657,0,-0.00610352,0.017395,0.00152588,0.0518799,0.0366211,-0.0161743,0.0213623,-0.0230408,-0.015564,-0.0112915,-0.087738,-0.0488281,0.00717163,-0.0248718,-0.0761414,-0.0378418,2.65488,2.64771,0.0192261,0.0111389,0.0387573,0.0138855,0.141754,0.0106812,-0.010376,0.145416,0.00473022,0.00244141,3.29041,3.28522,0.486163,-0.0641075,-1.13748,120.296,-160.144,51.4249,66.7186,-1164.14,0.427035,-0.0406265,-0.0756836,-0.000228882,0.0289536,0.00118256,0.0705719,-0.0902557,-0.00637054,0.221405,0.189285,0.24025,0.191383,-0.188675,0.182381,-0.186043,0.207748,-0.0236893,0.0370789,0.0569916,0.107727,-0.137253,-0.209351,0.100479,0.0844574,0.276794,-0.122871,-0.116158,-0.107994,-0.0947952,0.0764084,0.223579,-0.134888,-0.00793457
657,1,0.00488281,-0.00152588,-0.00854492,0.0190735,0.0285339,-0.0411987,0.00839233,-0.0535583,0.00442505,0.0114441,-0.0695801,-0.0445557,0.00167847,-0.0163269,-0.0737,-0.0444031,2.63611,2.64511,0.00991821,0.00686646,0.0285339,-0.0508118,0.0131226,-0.0128174,0.0476074,0.181274,0.01297,-0.0126648,3.2753,3.28613,0.309907,-0.326303,1.36607,-60.5714,53.3982,-5.30263,207.643,-1058.39,0.0770316,-0.0419235,-0.0713348,0.0220871,0.00297546,-0.00640869,0.0448227,-0.0970459,0.0205231,0.251122,0.197754,0.234032,0.177574,-0.157127,0.171509,-0.168495,0.181084,-0.0494385,0.0698853,0.0850296,0.122528,-0.115776,-0.231552,0.126534,0.075264,0.26535,-0.125465,-0.127373,-0.117874,-0.083313,0.100327,0.207443,-0.152435,-0.00335693
657,2,0.00640869,0.00259399,0.022583,0.00305176,0.0411987,-0.0390625,0.0219727,-0.0305176,-0.0202942,-0.00228882,-0.0672913,-0.0379944,0.00335693,-0.0115967,-0.0454712,-0.0375366,2.67471,2.63611,0.0402832,0.0062561,0.0273132,-0.0744629,0.0161743,-0.0088501,0.169373,0.175171,0.0320435,0.00366211,3.28629,3.26828,0.0389661,-0.151789,-0.421693,-150.922,124.673,32.3852,207.643,-1058.39,0.0770316,-0.027771,-0.0692368,0.0451279,0.000267029,0.00450134,0.0559616,-0.0945663,0.0230026,0.234451,0.201759,0.230713,0.185394,-0.152512,0.203285,-0.179825,0.170326,-0.0326157,0.0513077,0.0410461,0.113106,-0.122452,-0.198631,0.0931931,0.0907135,0.284309,-0.145149,-0.116501,-0.0965881,-0.0871277,0.0801086,0.226021,-0.113754,0.015564
657,3,0.0283813,0.00198364,0.00564575,-0.0193787,0.0228882,-0.0413513,-0.0216675,-0.0062561,-0.0227356,-0.0119019,-0.088501,-0.0456238,0.0154114,-0.00808716,-0.0843811,-0.0546265,2.61337,2.64847,-0.0238037,-0.0306702,-0.0297546,-0.0462341,-0.0267029,-0.00549316,0.130005,0.16571,0.0256348,-0.00595093,3.26508,3.27682,0.129373,0.0271967,0.292996,29.8583,-89.0022,13.6968,207.643,-1058.39,0.0770316,-0.0244522,-0.0742722,0.0101089,0.02388,0.0104141,0.042305,-0.0931549,0.0439453,0.21904,0.194435,0.256233,0.192337,-0.175667,0.181122,-0.186424,0.231934,-0.0515747,0.0431824,0.0758743,0.105019,-0.150223,-0.224342,0.10952,0.099144,0.272827,-0.124397,-0.100555,-0.114632,-0.109138,0.0855255,0.218887,-0.125618,-0.000610352
657,4,0.0187683,0.0123596,0.00778198,-0.0108337,0.0201416,-0.0337219,0.0038147,-0.0215149,-0.00686646,0.0135803,-0.0596619,-0.0369263,0.0117493,-0.0131226,-0.0634766,-0.0646973,2.64282,2.67609,-0.0158691,-0.000915527,0.0154114,-0.00488281,-0.0569153,0.0436401,0.184479,0.142365,0.0379944,-0.00869751,3.15231,3.1929,-0.142748,-0.155597,-2.5668,-15.3624,-160.302,-23.8333,145.218,-1052.42,0.139142,-0.0235748,-0.0647736,0.0154877,0.0135803,0.00389099,0.0585938,-0.0995255,0.0643539,0.236473,0.19371,0.25013,0.18219,-0.165558,0.17849,-0.186005,0.196533,-0.0258255,0.0569153,0.0806046,0.137558,-0.123291,-0.212746,0.0756454,0.0801849,0.251694,-0.121117,-0.119209,-0.11734,-0.120392,0.0770569,0.220222,-0.146942,-0.0140381
657,5,0.00350952,0.00793457,-0.0038147,-0.0213623,0.0149536,0.00808716,-0.00183105,-0.0178528,-0.00701904,-0.0193787,-0.0669861,-0.0520325,0.0154114,-0.00427246,-0.0582886,-0.0566101,2.66098,2.66068,-0.0248718,0.00747681,-0.00183105,0.0245667,-0.130463,0.00640869,0.174866,0.0863647,0.00442505,0.0180054,3.04794,3.0545,0.0413605,0.385118,1.72269,255.898,-88.827,88.8498,207.643,-1058.39,0.0770316,-0.0208664,-0.0778198,0.0265121,0.00476837,-0.00923157,0.0400543,-0.0646973,0.0399017,0.233879,0.206413,0.232697,0.19043,-0.156364,0.20298,-0.184822,0.218201,-0.0236511,0.0692368,0.0703812,0.118561,-0.135498,-0.197525,0.0614929,0.0819778,0.28553,-0.140877,-0.11795,-0.109177,-0.113907,0.0972366,0.221825,-0.154152,0.00610352
657,6,0.00244141,0.00808716,-0.00823975,-0.0151062,0.040741,0.0447083,0.0627136,-0.01297,-0.0357056,-0.0140381,-0.0741577,-0.0405884,0.012207,-0.00274658,-0.0784302,-0.0363159,2.64755,2.66876,-0.0213623,-0.000152588,0.0132751,-0.00534058,-0.13855,0.00778198,0.137024,0.153351,0.00595093,-0.00991821,2.95151,2.95959,0.219814,0.0284718,1.008,-105.674,53.5224,70.1659,207.643,-1058.39,0.0770316,-0.0468445,-0.0657272,0.0141525,0.00286102,0.0371552,0.0604248,-0.107956,0.030899,0.21698,0.19455,0.238953,0.197983,-0.169792,0.194969,-0.187607,0.202637,-0.0144577,0.0152206,0.0957108,0.0920105,-0.112953,-0.207672,0.128021,0.0608826,0.243683,-0.0873184,-0.131454,-0.080986,-0.122375,0.0575638,0.190849,-0.156059,0.00549316
657,7,-0.000610352,0.0112915,-0.0161743,-0.00701904,0.0534058,0.0132751,-0.000915527,0.00976562,-0.00244141,-0.0180054,-0.100403,-0.0572205,0.00915527,-0.00610352,-0.085907,-0.0370789,2.64725,2.63977,-0.022583,0.0132751,0.0309753,0.032959,-0.0892639,0.0430298,0.124207,0.173187,0.0244141,-0.0038147,2.84592,2.8923,-0.408647,-0.240099,-0.063462,165.423,-53.3641,13.4764,207.643,-1058.39,0.0770316,-0.0333786,-0.060463,0.00946045,0.00160217,-0.00579834,0.0500488,-0.0935364,0.0668335,0.216408,0.187531,0.230103,0.185928,-0.172195,0.20504,-0.176239,0.208969,-0.0356293,0.0361633,0.0769806,0.104141,-0.126648,-0.24189,0.105476,0.0423431,0.227737,-0.0817871,-0.111351,-0.0510025,-0.0906372,0.0422287,0.213394,-0.160179,-0.0112915
657,8,0.0328064,0.0135803,-0.000152588,0.0123596,0.071106,0.0360107,-0.00366211,0.0196838,-0.0109863,-0.00869751,-0.0866699,-0.017395,0.0218201,-0.00183105,-0.0445557,-0.0605774,2.66235,2.66037,0.0138855,0.0363159,-0.00396729,0.012207,-0.0202942,0.0112915,0.0364685,0.19104,0.00778198,0.0306702,2.7771,2.77496,-0.1415,-0.15371,-1.49414,29.8683,89.1274,51.0915,267.217,-1078.33,0.0428215,-0.0457001,-0.0822067,0.0348663,0.0346756,0.00610352,0.0468063,-0.0979996,0.0539017,0.228271,0.211945,0.257645,0.175247,-0.154991,0.190964,-0.198898,0.22789,-0.0193405,0.0120926,0.0624847,0.10231,-0.121117,-0.211678,0.11734,0.0465393,0.243645,-0.0862122,-0.119057,-0.0589752,-0.087204,0.060463,0.196838,-0.17128,0.0201416
657,9,0.0254822,0.0367737,-0.00930786,0.00579834,0.0227356,0.0430298,0.00991821,0.0250244,-0.0270081,-0.000152588,-0.0827026,-0.0396729,-0.00106812,-0.00671387,-0.062561,-0.032959,2.63336,2.65152,0.00762939,-0.00457764,-0.0166321,0.0724792,0.154724,-0.000457764,-0.00610352,0.213318,0.00457764,0.0193787,-2.62772,-2.40921,-0.140736,0.20297,-0.779663,165.423,-53.3641,13.4764,207.643,-1058.39,0.0770316,-0.0276184,-0.0926208,0.0151825,0.00713348,0.0257492,0.0541306,-0.0961304,0.0568008,0.230904,0.183334,0.234375,0.177727,-0.164337,0.211487,-0.185356,0.235367,-0.0629425,0.00598907,0.0629425,0.0995636,-0.0979996,-0.215111,0.0994492,0.0298309,0.22068,-0.126534,-0.137444,-0.0876617,-0.102272,0.0553131,0.20668,-0.140762,-0.00427246
658,0,0.0466919,0.0418091,0.00320435,0.00274658,0.0596619,0.0144958,0.0132751,0.0276184,0.000762939,-0.000610352,-0.0891113,-0.0291443,0.0357056,0.000152588,-0.0422668,-0.0262451,2.65991,2.65091,0.0263977,-0.0088501,-0.00259399,0.0665283,0.0921631,-0.00640869,-0.0114441,0.23407,0.0245667,0.0216675,-3.19107,-3.17993,-0.318223,-0.149969,0.651384,-60.5427,17.8188,13.614,207.643,-1058.39,0.0770316,-0.023613,-0.0433731,0.0335693,-0.00492096,-0.00919342,0.036087,-0.0982285,0.0307465,0.237732,0.19371,0.236168,0.175972,-0.166817,0.198364,-0.161667,0.211716,-0.0382233,0.019989,0.0743103,0.10334,-0.121765,-0.2034,0.120087,0.0505447,0.229111,-0.0871277,-0.116463,-0.061264,-0.100975,0.0510025,0.187492,-0.16758,0.00274658
658,1,0.00518799,0.0228882,-0.0175476,-0.0323486,0.0340271,0.00152588,0.00564575,0.00442505,-0.0366211,0.0119019,-0.098114,-0.0514221,0.0314331,-0.00640869,-0.0363159,-0.0564575,2.66449,2.64801,0.00946045,-0.00335693,-0.0350952,0.050354,0.0720215,0.00213623,0.00717163,0.244141,0.00823975,0.0239563,-3.1604,-3.18085,0.218566,0.0265844,-0.0646608,255.666,88.9377,-81.1493,207.643,-1058.39,0.0770316,-0.0273895,-0.0439835,0.00736237,-0.00564575,0.0157547,0.0404739,-0.0889206,0.0518417,0.233688,0.184326,0.255814,0.180588,-0.139084,0.190353,-0.186653,0.207176,-0.0261307,-0.00667572,0.0689697,0.082283,-0.131187,-0.222702,0.096283,0.0336456,0.252342,-0.118942,-0.120506,-0.061264,-0.107117,0.0771713,0.189629,-0.15625,0.000610352
658,2,-0.00946045,0.0109863,-0.0268555,-0.0415039,0.0572205,0.018158,0.0244141,0.020752,-0.0291443,-0.0132751,-0.080719,-0.0244141,0.0271606,0.00198364,-0.0645447,-0.0396729,2.66983,2.65045,0.0267029,0.0259399,-0.0166321,0.00747681,0.144196,-0.0401306,0.035553,0.207214,0.00366211,0.0553894,-3.17108,-3.17062,0.219831,-0.0603833,1.00815,-196.159,-89.1442,-42.6022,207.643,-1058.39,0.0770316,-0.0381851,-0.0595093,0.00453949,0.00732422,0.012207,0.0699615,-0.107803,0.0487137,0.223045,0.245743,0.222702,0.191727,-0.165939,0.172806,-0.18425,0.217323,-0.0268173,-0.01194,0.0705719,0.0859451,-0.125046,-0.216217,0.0905991,0.0666046,0.21183,-0.126991,-0.113487,-0.0919724,-0.140152,0.0815964,0.202179,-0.15049,0.00488281
658,3,-0.00762939,0.00228882,-0.0126648,-0.0169373,0.00198364,0.0180054,-0.00473022,-0.00198364,-0.0259399,-0.0158691,-0.0984192,-0.0306702,0.0460815,-0.0382996,-0.0790405,-0.0817871,2.6416,2.68295,0.01297,0.0213623,-0.0315857,0.0544739,-0.0117493,-0.0186157,0.0158691,0.23819,0.0402832,0.0250244,-3.16605,-3.17337,-0.317891,0.294937,1.00815,75.0789,-17.702,51.2269,207.643,-1058.39,0.0770316,-0.029068,-0.0272751,0.019989,-0.00610352,0.00946045,0.0283051,-0.092392,0.0667572,0.194664,0.207405,0.25013,0.182266,-0.172081,0.17746,-0.213737,0.192299,-0.0150681,0.0305939,0.0514221,0.0863647,-0.0722504,-0.214081,0.124092,0.0702667,0.24086,-0.098114,-0.150642,-0.100632,-0.112877,0.0557709,0.22995,-0.148506,-0.0149536
658,4,-0.00823975,-0.00564575,-0.00137329,-0.0343323,-0.0880432,-0.00915527,-0.00961304,-0.0088501,-0.0135803,-0.0172424,-0.0823975,-0.0424194,0.0280762,-0.0299072,-0.0613403,-0.0497437,2.6326,2.65793,-0.00335693,0.0209045,-0.0221252,0.0622559,-0.00762939,-0.000610352,-0.00671387,0.242004,0.00320435,0.0376892,-3.17139,-3.1485,-0.0498453,0.027163,0.293205,29.8531,53.4816,32.3002,207.643,-1058.39,0.0770316,-0.03685,-0.063591,0.01194,0.00411987,-0.00495911,0.0377274,-0.10231,0.0395966,0.229797,0.208015,0.253983,0.178604,-0.178032,0.190849,-0.196114,0.221252,-0.0318146,0.0313187,0.0311661,0.0346375,-0.0920868,-0.228767,0.0948334,0.0253677,0.225029,-0.0842667,-0.136757,-0.0980759,-0.110512,0.0694656,0.188141,-0.14637,0.0170898
658,5,-0.00335693,0.0273132,-0.00747681,-0.00183105,-0.197906,0.00778198,0.0239563,0.00320435,-0.0135803,-0.00656128,-0.0723267,-0.0286865,0.0267029,-0.0219727,-0.070343,-0.0328064,2.66174,2.62283,0.0120544,0.020752,-0.0202942,0.0508118,0.188599,0.0471497,-0.0216675,0.193939,0.00854492,0.0242615,-3.06915,-3.09814,0.12776,-0.241886,-1.13675,-15.4588,231.404,-43.3764,411.227,-1044.84,-0.183646,-0.03582,-0.071106,-0.00469208,-0.00293732,0.00648499,0.0590134,-0.103264,0.0529861,0.216103,0.204239,0.239372,0.162354,-0.161819,0.178833,-0.187035,0.203094,-0.016861,0.0166702,0.0366211,0.0614166,-0.0915146,-0.249329,0.102158,0.0566864,0.219383,-0.0986481,-0.123138,-0.128059,-0.12867,0.0761795,0.192375,-0.164108,0.0335693
658,6,-0.00228882,-0.00762939,0.00823975,0.020752,-0.220184,-0.0154114,0.01297,-0.0163269,-0.0189209,-0.01297,-0.0901794,-0.0248718,0.0260925,0.00671387,-0.091095,-0.0556946,2.66006,2.63931,0.017395,0.00915527,-0.0248718,0.0419617,0.232086,-0.00518799,-0.0352478,0.220337,0.00106812,0.0474548,-3.0162,-3.03314,0.309041,-0.149851,0.650654,165.301,124.567,-62.2528,207.643,-1058.39,0.0770316,-0.0450897,-0.0439453,0.00846863,0.0115585,-0.00724792,0.0567627,-0.0875092,0.0373077,0.219612,0.209427,0.227127,0.184593,-0.151901,0.175247,-0.176201,0.190849,-0.0299454,-0.00164032,0.0463486,0.0536728,-0.0958633,-0.222588,0.112,0.0606918,0.242462,-0.127449,-0.115013,-0.1091,-0.122948,0.0962067,0.1717,-0.148582,-0.00152588
658,7,0.0169373,0.0195312,0.0154114,0.0137329,-0.113678,0.0175476,0.00900269,-0.0234985,-0.0213623,0.00686646,-0.0848389,-0.0442505,0.0424194,0.0062561,-0.0437927,-0.0379944,2.66266,2.64725,-0.0062561,0.0242615,-0.0434875,0.0654602,0.139923,-0.000305176,-0.0372314,0.203857,0.0297546,0.0257874,-2.9361,-2.94815,0.221096,-0.147351,2.08097,75.0096,231.553,31.9343,207.643,-1058.39,0.0770316,-0.0457764,-0.0489426,-0.014534,-0.017395,0.0167084,0.0229263,-0.108566,0.0448227,0.232964,0.205078,0.240135,0.20237,-0.172539,0.198822,-0.188217,0.217857,-0.0662613,-0.00640869,0.0486374,0.0484085,-0.111237,-0.19989,0.119324,0.0593948,0.225716,-0.0881958,-0.109978,-0.110703,-0.134087,0.0751877,0.211296,-0.172501,0.0137329
658,8,0.0134277,0.0289917,0.0160217,-0.0144958,-0.000610352,0.0157166,0.00152588,0.00244141,-0.0184631,-0.0257874,-0.0715637,-0.0428772,0.0469971,-0.0151062,-0.0219727,-0.0486755,2.64511,2.6503,0.0346375,0.00442505,-0.0105286,0.0354004,0.0190735,-0.0143433,-0.0135803,0.223389,0.0123596,0.045166,-2.86575,-2.8212,0.218117,0.203666,-0.422527,-60.4953,-231.47,14.0526,207.643,-1058.39,0.0770316,-0.0216293,-0.0549316,-0.000839233,-0.00606537,-0.000953674,0.0499725,-0.0867081,0.039978,0.232887,0.218315,0.25959,0.189743,-0.151787,0.183754,-0.167122,0.221367,-0.0394058,0.0143433,0.018158,0.0570679,-0.0837326,-0.213966,0.12043,0.0554657,0.229073,-0.0784302,-0.117035,-0.110512,-0.123596,0.0722504,0.205116,-0.168648,0.00152588
658,9,0.0134277,0.00991821,0.00686646,-0.0195312,-0.103912,0.0190735,0.0215149,0.0228882,-0.0405884,0.000915527,-0.0610352,-0.0300598,0.0465393,0.00656128,-0.0883484,-0.0576782,2.64816,2.64526,0.0369263,0.012207,-0.0311279,0.0228882,0.00900269,0.0105286,-0.0137329,0.184631,-0.00183105,0.0201416,3.06961,3.10257,-0.0494125,-0.061063,0.650915,300.982,124.758,31.8594,207.643,-1058.39,0.0770316,-0.0469208,-0.0709152,-0.000762939,-0.0124741,0.0101089,0.0505066,-0.094223,0.0466919,0.238266,0.211792,0.256081,0.207901,-0.171967,0.16758,-0.184517,0.204086,-0.0325394,-0.000572205,0.0450897,0.0745773,-0.0934982,-0.244408,0.101776,0.0365448,0.265427,-0.104256,-0.141907,-0.103989,-0.140076,0.0624084,0.202141,-0.171051,0.010376
659,0,0.0244141,-0.0198364,0.0109863,0.0210571,-0.0325012,0.0398254,0.00793457,-0.0386047,-0.0257874,0.0123596,-0.0759888,-0.0088501,0.0172424,0.0135803,-0.0457764,-0.057373,2.6416,2.66434,0.0306702,0.0170898,-0.0515747,0.0558472,-0.0886536,-0.0161743,-0.0331116,0.197754,0.0177002,0.0128174,3.25836,3.27011,0.0380835,0.113519,-1.13727,29.865,-124.615,13.7594,98.0246,-1084.64,0.250744,-0.0341415,-0.0652695,-0.00362396,0.00995636,0.0116348,0.0463867,-0.102119,0.0655365,0.238914,0.199623,0.24128,0.190544,-0.160675,0.196419,-0.190697,0.219078,-0.066185,0.00598907,0.0289917,0.0296021,-0.11467,-0.213928,0.128937,0.0481796,0.234985,-0.0769424,-0.0920105,-0.115204,-0.139236,0.0533295,0.160446,-0.16037,0.00549316
659,1,0.0233459,0.0109863,0.012207,0.0178528,0.00457764,0.00518799,0.0186157,-0.0198364,-0.010376,0.00106812,-0.0643921,-0.0486755,0.0372314,-0.0158691,-0.057373,-0.0190735,2.63336,2.63611,0.00350952,0.00915527,-0.0744629,-0.065918,-0.261688,-0.00915527,0.0340271,0.148468,-0.00213623,0.0209045,3.26294,3.30566,-0.0495307,0.560924,0.64982,120.333,-124.465,89.0702,207.643,-1058.39,0.0770316,-0.0272369,-0.0597,-0.0311661,-0.0025177,0.00946045,0.063591,-0.11013,0.0637436,0.235062,0.191689,0.251656,0.195465,-0.184822,0.206871,-0.178375,0.187492,-0.0389862,0.0268936,0.00602722,0.0378418,-0.0910568,-0.20565,0.139046,0.0582123,0.219688,-0.0758362,-0.082016,-0.102768,-0.121422,0.0774765,0.163612,-0.138359,0.000915527
659,2,0.0189209,0.0138855,0.0111389,0.0314331,0.118256,0.022583,0.000915527,-0.0112915,-0.052948,-0.00564575,-0.0741577,-0.0166321,0.0411987,0.015564,-0.0595093,-0.0390625,2.6326,2.65869,0.0212097,0.0227356,-0.025177,-0.0157166,-0.0672913,0.0553894,0.0204468,0.126343,-0.00411987,0.014801,3.28156,3.29544,-0.140303,0.114743,-0.421954,-15.3659,89.0526,13.4361,207.643,-1058.39,0.0770316,-0.0471878,-0.0613785,-0.0222015,0.000686646,0.00980377,0.0484467,-0.0965118,0.0221634,0.239143,0.203476,0.243454,0.213013,-0.167198,0.191422,-0.173416,0.204391,-0.0196457,-0.0056839,-0.00137329,0.0102234,-0.0990677,-0.195732,0.134468,0.0587082,0.261307,-0.0837326,-0.114784,-0.0926208,-0.131798,0.0962067,0.186844,-0.142441,-0.0216675
659,3,0.00854492,0.0227356,0.0167847,-0.00717163,0.21286,-0.0546265,0.0205994,-0.00808716,-0.0344849,0.0112915,-0.0668335,-0.0653076,0.0430298,-0.0157166,-0.0469971,-0.0498962,2.66525,2.65442,0.0125122,0.0393677,0.0238037,0.0241089,0.0497437,0.0360107,0.0125122,0.0946045,0.000915527,-0.00717163,3.26248,3.24463,-0.140303,0.114743,-0.421954,74.9996,53.4237,-5.46039,207.643,-1058.39,0.0770316,-0.048027,-0.0452042,-0.00534058,-0.0292206,-0.00133514,0.0784302,-0.0964355,0.0603867,0.246964,0.198135,0.231743,0.191841,-0.173607,0.205116,-0.182991,0.209427,-0.0537109,-0.00675201,0.0320053,0.0640106,-0.112495,-0.221024,0.143852,0.0291824,0.247421,-0.122757,-0.105362,-0.103569,-0.164261,0.0624466,0.155678,-0.122986,-0.00396729
659,4,0.0202942,0.0117493,0.0311279,0.0382996,0.136566,-0.00167847,0.00701904,-0.012207,-0.0140381,-0.015564,-0.0379944,-0.0509644,0.0662231,-0.00335693,-0.0758362,-0.032959,2.62573,2.6387,0.00717163,0.0169373,0.0196838,0.118408,0.0331116,0.00457764,0.0604248,0.104218,0.0273132,0.0334167,3.16559,3.20251,-0.319538,0.203565,-0.421901,120.141,195.85,-24.6176,207.643,-1058.39,0.0770316,-0.0181198,-0.0867462,0.00442505,-0.0373459,0.0094986,0.0562286,-0.0879669,0.0567627,0.230141,0.189705,0.248718,0.202332,-0.159912,0.194778,-0.187531,0.215302,-0.0427628,0.0318909,-0.0025177,0.0475693,-0.0823212,-0.221176,0.14473,0.0566864,0.219345,-0.101089,-0.0933456,-0.0946808,-0.151596,0.060463,0.188446,-0.135803,-0.00640869
659,5,0.00183105,0.00473022,-0.000762939,0.0421143,0.0921631,0.0131226,0.00427246,-0.0111389,-0.0427246,-0.00320435,-0.0576782,-0.0337219,0.0245667,-0.0231934,-0.0814819,-0.0363159,2.63489,2.65167,0.0250244,0.00152588,-0.0134277,0.0770569,0.00152588,0.0276184,0.0195312,0.110779,0.0476074,-0.0120544,3.05298,3.0719,-0.0489797,-0.149289,1.00862,-60.524,-195.89,-4.86405,207.643,-1058.39,0.0770316,-0.049324,-0.0863647,0.0147247,-0.0180435,0.0222397,0.060463,-0.105705,0.0615311,0.2248,0.18055,0.250473,0.184135,-0.171013,0.190926,-0.18219,0.20649,-0.0495148,0.00518799,0.00675201,0.0256348,-0.0979614,-0.221062,0.158043,0.0232697,0.263901,-0.106773,-0.0949097,-0.0867081,-0.131187,0.0865173,0.160217,-0.143242,-0.0274658
659,6,0.0192261,0.00778198,0.00946045,0.0682068,0.0271606,0.019989,0.00579834,-0.0100708,-0.00701904,-0.00457764,-0.0292969,-0.0291443,0.0390625,0.00915527,-0.0502014,-0.0498962,2.66037,2.64862,0.0178528,-0.00640869,-0.0238037,0.0488281,-0.0445557,0.0234985,-0.0917053,0.15213,0.0144958,-0.0105286,2.93991,2.94769,-0.587033,-0.238875,0.651853,165.389,124.699,13.1631,207.643,-1058.39,0.0770316,-0.0444412,-0.0766754,0.00450134,-0.0325394,-0.000648499,0.0471115,-0.0914764,0.055542,0.256767,0.206261,0.251503,0.17971,-0.147324,0.205841,-0.185051,0.220871,-0.0302124,-0.0151825,0.00782013,0.0279999,-0.100479,-0.217476,0.130615,0.0630188,0.269089,-0.114136,-0.0878525,-0.0969696,-0.124626,0.0891876,0.158844,-0.152664,-0.00213623
659,7,0.00900269,0.0193787,0.0221252,0.0712585,-0.0190735,0.00244141,-0.000915527,-0.0219727,-0.0183105,-0.00305176,-0.055542,-0.0453186,0.0273132,0.00793457,-0.0819397,-0.0376892,2.63763,2.6297,0.0178528,0.000152588,0.000915527,-0.00183105,-0.0447083,-0.0500488,-0.0617981,0.138702,0.0262451,-0.0317383,2.83722,2.88818,-0.140253,-0.151823,-0.421485,120.21,-53.4057,-5.32501,207.643,-1058.39,0.0770316,-0.0494766,-0.0720978,0.0294495,-0.0300598,0.0370407,0.0304413,-0.0717926,0.0485229,0.246391,0.185699,0.247726,0.215416,-0.169678,0.195198,-0.195656,0.20256,-0.0262451,-0.00862122,0.00938416,0.0228882,-0.104218,-0.227356,0.148315,0.0446701,0.266266,-0.0738144,-0.0696945,-0.0914764,-0.172997,0.0337982,0.161705,-0.107689,0.00213623
659,8,0.00350952,0.0305176,0.00183105,0.0672913,-0.0663757,0.0247192,-0.0038147,0.00167847,-0.0169373,-0.0195312,-0.0553894,-0.0331116,0.0634766,0.00335693,-0.0692749,-0.035553,2.66129,2.64496,-0.0117493,-0.0180054,-0.0125122,-0.0558472,-0.0416565,-0.0259399,-0.0616455,0.107422,-0.00183105,-0.0286865,2.74078,2.75696,-0.229777,-0.596116,-0.420599,-60.524,-195.89,-4.86405,207.643,-1058.39,0.0770316,-0.0325394,-0.0865173,0.00701904,-0.0203323,0.000762939,0.0341797,-0.0669098,0.0495911,0.22934,0.189743,0.23941,0.205116,-0.173988,0.204697,-0.175629,0.184746,-0.0225449,0.00656128,0.00846863,0.0344086,-0.100784,-0.204926,0.139999,0.0566101,0.231667,-0.0539398,-0.091629,-0.0936127,-0.145302,0.0497818,0.171852,-0.115395,0.000610352
659,9,-0.0161743,0.0241089,0.0161743,0.0343323,-0.158997,0.0164795,0.00839233,0.00167847,-0.0325012,-0.00976562,-0.0401306,-0.0491333,0.0357056,-0.00244141,-0.0634766,-0.0524902,2.67441,2.63474,-0.00579834,-0.0187683,-0.0338745,-0.0778198,-0.0274658,-0.00259399,-0.0344849,0.109711,0.0186157,-0.0224304,-2.54562,-2.38449,0.0401802,0.027809,0.650654,-15.4265,-53.5307,-61.7292,207.643,-1058.39,0.0770316,-0.0435638,-0.0799179,0.0226212,-0.0181961,0.00888824,0.0510788,-0.0953674,0.0512314,0.252914,0.18959,0.238914,0.171585,-0.183182,0.187378,-0.187531,0.196686,-0.0231934,-0.00640869,-0.00595093,0.0540924,-0.0852585,-0.227432,0.127525,0.0340652,0.241318,-0.07164,-0.103493,-0.0830841,-0.149307,0.0525284,0.148621,-0.110512,0.0012207
660,0,0.0143433,0.0164795,0.0166321,0.0205994,-0.105591,0.0318909,0.0050354,0.0396729,-0.0195312,0.0234985,-0.0469971,-0.0567627,0.0253296,0.00259399,-0.0695801,-0.017395,2.668,2.67319,-0.0112915,0.00411987,-0.0297546,-0.0950623,-0.00442505,-0.0654602,0.00793457,0.0898743,0.0231934,-0.0292969,-3.18039,-3.17596,0.399797,0.385185,1.72227,-105.778,-89.1272,-42.7074,207.643,-1058.39,0.0770316,-0.0312424,-0.0943375,0.031395,-0.0328064,0.012207,0.0438309,-0.0793839,0.0659943,0.227814,0.218506,0.241852,0.178604,-0.17189,0.205002,-0.200424,0.212402,-0.0402451,-0.0143433,0.00953674,0.0512695,-0.133324,-0.21637,0.128441,0.0258255,0.253525,-0.0905228,-0.101738,-0.0820541,-0.150795,0.0374603,0.184555,-0.128708,0.00701904
660,1,0.0102234,0.0331116,-0.00244141,0.0392151,0.111694,0.0140381,0.00167847,0.0125122,-0.0114441,-0.0166321,-0.0636292,-0.0701904,0.0334167,0.00671387,-0.0474548,-0.0300598,2.65884,2.6265,-0.0279236,-0.0186157,-0.0308228,-0.10498,-0.0538635,-0.0291443,0.0764465,0.012207,0.0231934,-0.0256348,-3.19809,-3.1752,-0.407832,-0.149986,0.651488,29.7722,17.7362,-43.0531,207.643,-1058.39,0.0770316,-0.0405121,-0.0540924,0.0268173,-0.0118256,0.00312805,0.0673676,-0.0933075,0.0566101,0.221672,0.185852,0.229645,0.182724,-0.152016,0.223961,-0.170746,0.215187,-0.0411987,-0.0102997,0.0135422,0.0229263,-0.119476,-0.220146,0.120468,0.0331879,0.23632,-0.0763321,-0.0841904,-0.109749,-0.145073,0.061264,0.172424,-0.115051,-0.0112915
660,2,-0.0146484,-0.00244141,0.014801,0.0152588,0.197754,-0.0115967,0.0144958,0.0012207,-0.012207,0.0195312,-0.0764465,-0.0584412,0.0456238,-0.0166321,-0.0570679,-0.0369263,2.65686,2.63382,0.0038147,-0.0100708,-0.0411987,-0.0933838,-0.0268555,-0.0012207,0.09552,-0.0395203,0.0247192,-0.0340271,-3.17703,-3.18192,0.218066,0.470232,-0.422996,165.409,17.8612,13.3511,207.643,-1058.39,0.0770316,-0.0206757,-0.082283,0.021553,-0.0156403,0.00988007,0.0525665,-0.0894928,0.0731277,0.22541,0.182114,0.247269,0.186272,-0.158653,0.213013,-0.173035,0.202904,-0.0322723,0.00221252,0.00236511,0.0215149,-0.110207,-0.221672,0.142441,0.0363541,0.247231,-0.0678635,-0.0598145,-0.0933456,-0.159378,0.0574493,0.154991,-0.12764,0.0012207
660,3,0.0164795,0.0241089,0.0152588,0.0323486,0.1474,-0.00442505,0.0259399,-0.0175476,-0.0167847,-0.0100708,-0.0820923,-0.0679016,0.040741,-0.00930786,-0.0558472,-0.0492859,2.65961,2.64267,0.00320435,0.0157166,-0.037384,-0.0593567,0.091095,0.0222778,0.100555,-0.0857544,-0.00869751,0.00991821,-3.19183,-3.19275,0.309406,0.117344,1.00774,75.1041,196.073,107.413,207.643,-1058.39,0.0770316,-0.0378418,-0.0660706,0.0305939,-0.0194931,0.0167847,0.0402451,-0.105286,0.0505829,0.232201,0.169296,0.247879,0.189018,-0.176315,0.176315,-0.17498,0.222855,-0.0270844,-0.0105286,-0.00911713,0.0449371,-0.0777817,-0.224419,0.124626,0.0323486,0.22316,-0.0539017,-0.0901413,-0.104446,-0.144081,0.0537491,0.161247,-0.12001,0.00335693
660,4,0.00198364,0.0430298,0.0320435,0.0143433,-0.0473022,-0.00701904,0.0205994,-0.00305176,-0.00701904,-0.0227356,-0.0534058,-0.0465393,0.03479,-0.0062561,-0.0654602,-0.0550842,2.64297,2.68234,-0.0186157,-0.0152588,0.00961304,-0.0639343,0.133514,0.00686646,0.0369263,-0.0997925,0.022583,-0.00518799,-3.15277,-3.16238,-0.0498791,0.204874,0.292892,-60.5427,17.8188,13.614,207.643,-1058.39,0.0770316,-0.0209045,-0.0606918,0.0255585,-0.0374222,0.00766754,0.0511169,-0.0696564,0.0270462,0.232086,0.199966,0.233955,0.189247,-0.144234,0.200157,-0.19558,0.221786,-0.0374603,0.00770569,0.0192642,-0.0038147,-0.0944519,-0.236282,0.155449,0.0601578,0.214882,-0.0849533,-0.08564,-0.108299,-0.164719,0.0533295,0.135727,-0.0632858,0.00427246
660,5,0.0137329,0.0183105,0.00717163,-0.00427246,-0.140686,-0.010376,-0.0141907,0.0218201,-0.0132751,-0.0166321,-0.0421143,-0.0497437,0.0283813,0.00305176,-0.0686646,-0.0308228,2.66281,2.64984,-0.0157166,0.0157166,0.0497437,0.0149536,0.102081,0.020752,-0.0219727,-0.156708,-0.0205994,-0.00579834,-3.08273,-3.09311,0.0382186,-0.597324,-1.13602,-15.322,89.1189,51.1441,285.943,-1044.86,-0.0378588,-0.0298309,-0.0846863,-0.00797272,-0.0210571,-0.00175476,0.0341797,-0.0720596,0.0349808,0.24765,0.198364,0.227203,0.194473,-0.163879,0.191269,-0.181007,0.223122,-0.0448608,-0.00934601,-0.00694275,0.00881195,-0.054245,-0.230522,0.14801,0.0707626,0.228958,-0.07164,-0.0423813,-0.116463,-0.140343,0.0524521,0.143166,-0.0951385,-0.0012207
660,6,0.0119019,-0.00259399,0.010376,0.00930786,-0.0379944,-0.010376,-0.0292969,0.000610352,-0.0254822,-0.0161743,-0.0576782,-0.0553894,0.0212097,0.00839233,-0.0621033,-0.0350952,2.63794,2.64648,-0.017395,0.0518799,0.0337219,0.091095,0.0202942,0.0164795,-0.0143433,-0.176849,0.0100708,0.0228882,-2.98248,-3.01193,0.845015,-0.063411,-0.780341,-60.5275,53.4646,32.4053,207.643,-1058.39,0.0770316,-0.0445557,-0.0621033,0.0151443,-0.0276947,0.0133514,0.0326538,-0.0905991,0.046196,0.22049,0.196609,0.254631,0.188599,-0.15419,0.202408,-0.20092,0.212021,-0.0581741,-0.0197601,-0.00350952,0.0555038,-0.0782013,-0.222626,0.145111,0.05867,0.236435,-0.0835037,-0.0598145,-0.10479,-0.174179,0.0470352,0.145111,-0.0836182,0.0411987
660,7,0.019989,0.0112915,0.00305176,-0.0180054,-0.00320435,0.00900269,0.0131226,-0.00320435,-0.0180054,-0.0144958,-0.0630188,-0.0602722,0.0379944,-0.00656128,-0.0679016,-0.030365,2.66129,2.64816,0.00274658,-0.0088501,0.0366211,0.0849915,0.0244141,0.019989,-0.00244141,-0.200653,0.000762939,0.0427246,-2.92068,-2.95441,-0.40908,-0.151873,-0.421172,-60.6575,160.137,-62.0525,207.643,-1058.39,0.0770316,-0.0430298,-0.0862503,0.0257874,-0.031395,0.0164413,0.03685,-0.0980759,0.0456238,0.228043,0.172462,0.226669,0.190353,-0.155678,0.199966,-0.166817,0.206375,-0.0416183,-0.00724792,-0.0111008,0.0310516,-0.0493622,-0.239487,0.16304,0.0751114,0.227432,-0.068779,-0.0601196,-0.0749969,-0.136414,0.0514984,0.128403,-0.0947189,0.0280762
660,8,0.0302124,0.0219727,-0.00823975,0.0221252,-0.102081,-0.0238037,0.0109863,-0.0201416,-0.0143433,-0.000762939,-0.06073,-0.0627136,0.0294495,-0.0161743,-0.0341797,-0.0585938,2.63977,2.63855,-0.0100708,0.0088501,0.0456238,0.105133,0.0376892,0.0286865,0.0408936,-0.233154,0.0315857,0.0434875,-2.87018,-2.85156,0.040613,-0.060417,1.00836,-150.881,-89.003,32.7611,207.643,-1058.39,0.0770316,-0.0475311,-0.0735855,0.0596619,-0.0207901,0.0413513,0.0486755,-0.110474,0.0114441,0.209732,0.199203,0.239067,0.193062,-0.136032,0.188293,-0.190659,0.21244,-0.0492859,0.0138092,0.0192642,0.0174713,-0.0780487,-0.225754,0.152969,0.0849533,0.239754,-0.0617599,-0.0440216,-0.0908661,-0.141449,0.0470734,0.164185,-0.0665665,0.00518799
660,9,0.0158691,0.00808716,0.00259399,-0.00396729,-0.0317383,0.00595093,0.0141907,-0.0213623,-0.0291443,0.0152588,-0.0730896,-0.0779724,0.0291443,-0.0184631,-0.0521851,-0.0679016,2.67929,2.65121,-0.000610352,0.0209045,0.0662231,0.116119,0.0611877,0.0242615,-0.0224304,-0.256653,-0.0219727,0.0215149,3.09174,3.08701,0.0380835,0.113519,-1.13727,75.0215,53.4569,13.3936,254.637,-1124.36,0.138433,-0.0283813,-0.0882721,0.00713348,-0.00240326,0.035553,0.0490189,-0.111694,-0.0118256,0.233345,0.177155,0.22747,0.19577,-0.158768,0.173721,-0.185013,0.219307,-0.0370026,-0.0255585,0.0289536,0.0326157,-0.0497437,-0.204277,0.1511,0.0655365,0.250015,-0.0795746,-0.0666046,-0.0873566,-0.136948,0.0580978,0.151291,-0.101242,-0.0180054
661,0,0.0395203,-0.00534058,-0.0132751,-0.00732422,0.35553,-0.0102234,0.0154114,-0.019989,-0.0256348,0.0177002,-0.0460815,-0.0437927,0.0358582,-0.0234985,-0.0654602,-0.0447083,2.66266,2.66495,0.000762939,0.0344849,0.0250244,0.0762939,0.101013,0.00106812,-0.0628662,-0.251312,0.00991821,0.0196838,3.24677,3.26843,-0.0494294,0.0277922,0.650758,-196.142,53.3728,-5.14487,207.643,-1058.39,0.0770316,-0.0339508,-0.0901413,0.034256,0.00087738,0.0400543,0.0457001,-0.091629,0.0351334,0.234871,0.191689,0.247459,0.201073,-0.167732,0.199089,-0.19928,0.210762,-0.0582886,-0.0181961,0.0227737,0.0343323,-0.0641251,-0.237579,0.154724,0.0613403,0.228119,-0.0865555,-0.0681305,-0.0899506,-0.147552,0.0532913,0.129585,-0.0873184,0.0128174
661,1,0.0144958,0.00183105,-0.00259399,-0.00900269,0.278625,0.00869751,0.000915527,0.00198364,-0.0158691,-0.000457764,-0.0241089,-0.0616455,0.0146484,-0.0151062,-0.0309753,-0.0509644,2.65808,2.66556,-0.0175476,0.0515747,0.012207,-0.0553894,0.0845337,0.00686646,-0.0782776,-0.289459,0.0311279,0.030365,3.2637,3.2843,-0.499206,0.380613,-0.779558,-15.344,89.0857,32.2901,207.643,-1058.39,0.0770316,-0.0569534,-0.080719,0.0514221,-0.00762939,0.0590897,0.0397491,-0.0898361,0.0185013,0.229187,0.208931,0.233307,0.182724,-0.145607,0.191345,-0.181389,0.232697,-0.0614166,-0.0186157,-0.0236893,0.00125885,-0.0740051,-0.199509,0.182724,0.0968933,0.195961,-0.0735092,-0.0507736,-0.126915,-0.159302,-0.0101089,0.147247,-0.0735092,0.0125122
661,2,-0.00289917,-0.00137329,0.0180054,0.0088501,-0.0134277,-0.012207,-0.00717163,0.0154114,-0.0273132,0.0241089,-0.0497437,-0.0721741,0.0566101,0.0112915,-0.0523376,-0.055542,2.66495,2.65457,0.0308228,0.0289917,-0.125275,-0.0785828,0.0961304,0.0117493,-0.0750732,-0.262756,0.017395,0.0349426,3.28369,3.2547,-0.5866,-0.327101,1.00956,-15.3507,124.699,32.2274,207.643,-1058.39,0.0770316,-0.0379562,-0.0749207,0.0413132,-0.0323105,0.0344849,0.0496292,-0.0951004,0.00152588,0.214424,0.184555,0.264015,0.20504,-0.142708,0.193901,-0.184975,0.211449,-0.0563431,-0.0315475,-0.0200272,0.00240326,-0.0791168,-0.189629,0.164719,0.0704193,0.215569,-0.0838089,-0.0754929,-0.0912857,-0.158119,0.0102615,0.153999,-0.0574112,0.00976562
661,3,0.0260925,-0.00473022,0.022583,0.00411987,-0.126495,-0.0167847,0.00747681,0.00366211,-0.032959,-0.00152588,-0.0697327,-0.0274658,0.0320435,-0.0256348,-0.0753784,-0.0538635,2.62451,2.66129,0.0172424,-0.00274658,-0.0946045,-0.100098,0.0575256,0.0160217,-0.0700378,-0.236359,-0.00976562,0.0221252,3.26385,3.23074,0.486646,-0.4189,-0.779298,165.465,-160.169,32.5183,207.643,-1058.39,0.0770316,-0.0231552,-0.0795364,0.0160599,-0.0249863,0.0305176,0.0474167,-0.0917435,0.0136948,0.224419,0.202179,0.240021,0.171051,-0.160332,0.206337,-0.179634,0.22007,-0.0714493,-0.032196,-0.0228882,0.0141907,-0.060463,-0.19371,0.166245,0.105209,0.236282,-0.0872803,-0.0902557,-0.135117,-0.179024,0.0215149,0.148048,-0.0610733,-0.0134277
661,4,0.020752,-0.01297,-0.000610352,0.0108337,0.0473022,0.0205994,0.010376,0.0204468,-0.0375366,0.0292969,-0.0419617,-0.0540161,0.0382996,-0.0105286,-0.0340271,-0.0495911,2.65015,2.65503,0.0337219,0.01297,-0.0511169,-0.105743,0.035553,0.0125122,-0.0582886,-0.231476,0.00778198,0.0210571,3.14148,3.1636,-0.501685,0.287983,-2.92472,29.7925,-89.1017,-42.8651,177.205,-1068.59,0.130394,-0.0696182,-0.0683212,0.0215149,-0.0115585,0.0386047,0.0428772,-0.0892639,0.02285,0.250244,0.184441,0.232391,0.18116,-0.15728,0.188026,-0.175209,0.208015,-0.0519562,-0.0128555,0.00495911,0.00518799,-0.0852203,-0.19001,0.159836,0.114975,0.206032,-0.0897217,-0.0619507,-0.133781,-0.185394,0.0314713,0.156746,-0.0537491,-0.00244141
661,5,0.014801,0.0131226,-0.0108337,0.00579834,0.0430298,0.00732422,-0.0038147,0.014801,-0.0498962,0.0198364,-0.0328064,-0.0578308,0.0419617,-0.00549316,-0.0650024,-0.0953674,2.63977,2.63779,0.0137329,0.0111389,-0.0140381,-0.152283,-0.0718689,-0.00350952,-0.0379944,-0.22522,0.0341797,0.0172424,3.0542,3.05557,-0.229131,0.382551,0.292788,75.0434,53.4901,32.2476,207.643,-1058.39,0.0770316,-0.0328445,-0.0843048,0.01091,-0.0139236,-3.81E-05,0.0208664,-0.0911713,0.0119781,0.206146,0.199318,0.242004,0.212975,-0.164566,0.16037,-0.197792,0.220261,-0.0726318,-0.0296783,-0.0163651,-0.0172424,-0.0801086,-0.192566,0.129814,0.0971985,0.199699,-0.108986,-0.0648499,-0.112953,-0.20298,0.0304794,0.14122,-0.056076,-0.0088501
661,6,0.00534058,0.0126648,0.00396729,0.0141907,0.00823975,-0.0152588,-0.0138855,0.0186157,-0.0392151,0.0302124,-0.0485229,-0.0631714,0.0294495,-0.0279236,-0.0436401,-0.0663757,2.66068,2.65518,0.00823975,0.0306702,0.0183105,-0.0708008,-0.125122,0.00305176,0.0190735,-0.261536,0.000152588,-0.00457764,2.94601,2.95303,0.217285,0.202408,-1.13763,-15.3456,-17.7854,13.6241,191.98,-1044.88,0.0714813,-0.0353622,-0.0664139,0.0082016,-0.0241852,-0.0141907,0.0236893,-0.104904,0.0261307,0.194626,0.176582,0.225258,0.173569,-0.168991,0.197525,-0.191803,0.222092,-0.0731659,-0.0256729,-0.0368118,-0.0234222,-0.0708771,-0.178337,0.191956,0.0939941,0.212822,-0.0845337,-0.0737,-0.14061,-0.204544,0.00785828,0.162354,-0.0653076,0.0137329
661,7,-0.0117493,0.00152588,-0.0308228,-0.000305176,-0.0396729,0.0137329,-0.00137329,0.0138855,-0.0422668,0.0119019,-0.0465393,-0.0537109,0.0337219,-0.0120544,-0.0723267,-0.0602722,2.64404,2.65976,0.0262451,0.0106812,0.0392151,0.00991821,-0.262604,0.039978,-0.0415039,-0.276184,0.0152588,-0.01297,2.85721,2.87109,-0.140618,-0.419018,-0.778568,-196.016,196.056,126.582,207.643,-1058.39,0.0770316,-0.0403214,-0.0795746,0.0111771,-0.0210571,-0.00804901,0.023613,-0.10891,0.0408554,0.195961,0.201263,0.242996,0.178642,-0.164986,0.191154,-0.172844,0.220718,-0.0695038,-0.0385284,-0.0237274,0.0104904,-0.0883102,-0.182228,0.152969,0.114861,0.215225,-0.0946426,-0.100975,-0.112572,-0.190048,0.0316238,0.143013,-0.0774765,-0.0152588
661,8,0.00946045,-0.0187683,-0.00366211,0.00579834,-0.0514221,0.057373,-0.00137329,0.0306702,-0.00473022,0.0143433,-0.0688171,-0.0544739,0.00640869,-0.01297,-0.0675964,-0.0726318,2.64984,2.65747,0.0202942,-0.0106812,0.0112915,0.0270081,-0.267792,-0.0114441,0.0564575,-0.307922,0.0312805,0.020752,2.73376,2.74963,-0.049896,0.293729,0.292736,75.0705,-88.9605,32.4982,207.643,-1058.39,0.0770316,-0.0263596,-0.076828,0.00934601,0.00152588,0.00774384,0.0167465,-0.0870514,0.0388718,0.178146,0.185623,0.232124,0.181694,-0.164299,0.177879,-0.192604,0.234375,-0.0709152,0.00709534,-0.0548553,0.0127792,-0.120354,-0.163841,0.206223,0.0885773,0.222359,-0.0481415,-0.078125,-0.128326,-0.176315,-0.0166702,0.14534,-0.04879,0.00946045
661,9,-0.00640869,-0.0241089,-0.00366211,0.00473022,0.0727844,0.0331116,-0.00411987,0.0184631,-0.0192261,0.0263977,-0.0439453,-0.0308228,0.0485229,-0.0102234,-0.0999451,-0.0598145,2.67899,2.63504,0.0794983,0.00976562,0.0152588,0.0772095,-0.159454,0.0311279,0.0970459,-0.293579,0.0238037,0.0289917,-1.93741,-1.4296,0.129671,0.649813,0.649455,120.22,124.724,32.0697,207.643,-1058.39,0.0770316,-0.0192261,-0.0753403,0.0122452,-0.00587463,-0.0135803,0.0220871,-0.0925827,0.0302124,0.20256,0.207596,0.247688,0.181618,-0.196991,0.185013,-0.172272,0.232162,-0.0601959,-0.00579834,-0.0415802,0.0349426,-0.0989532,-0.170135,0.176506,0.0596237,0.218544,-0.0553131,-0.0738525,-0.153618,-0.183487,-0.0152969,0.13298,-0.060463,-0.00701904
662,0,0.0294495,0.0141907,0.00366211,0.0228882,0.0170898,0.042572,0.0205994,0.0318909,-0.0201416,0.0332642,-0.045166,-0.0405884,0.0453186,-0.000457764,-0.0680542,-0.0679016,2.64862,2.6593,0.0575256,0.00839233,0.0038147,0.0994873,-0.110779,0.0227356,0.1651,-0.317841,0.00427246,0.0259399,-3.19183,-3.17535,0.218617,-0.239981,-0.0641919,391.222,53.3173,-100.098,207.643,-1058.39,0.0770316,-0.0320435,-0.0583649,-0.00518799,-0.00709534,-0.0100708,0.0374222,-0.0901794,0.0382614,0.215302,0.223694,0.248909,0.179024,-0.164719,0.195808,-0.166397,0.236282,-0.0428009,-0.00827789,-0.0429153,0.000534058,-0.0990677,-0.148926,0.175858,0.092926,0.234337,-0.0315857,-0.0825119,-0.139542,-0.172806,-0.0161362,0.120239,-0.0787735,-0.0088501
662,1,-0.00137329,0.00930786,0.00350952,0.0296021,-0.0285339,0.0234985,0.00686646,-0.0201416,-0.0228882,0.0154114,-0.0521851,-0.0700378,0.0354004,-0.01297,-0.0558472,-0.0842285,2.66144,2.65244,0.058136,0.00564575,0.0201416,0.133362,0.018158,0.0239563,0.0196838,-0.33371,0.0166321,0.0270081,-3.16681,-3.16879,-0.407,-0.148727,1.36659,-105.821,17.6776,-61.7493,207.643,-1058.39,0.0770316,-0.0329208,-0.0900269,0.018959,0.0043869,-0.0019455,-0.00434875,-0.098381,0.0120544,0.189095,0.187988,0.231514,0.193825,-0.169792,0.184212,-0.210304,0.232201,-0.0556564,-0.00984192,-0.047493,-0.0166702,-0.134697,-0.169678,0.174751,0.0925827,0.228119,-0.0485611,-0.0769424,-0.165443,-0.169067,-0.00366211,0.110207,-0.0658798,0.0128174
662,2,-0.00274658,0.0276184,-0.00457764,0.0460815,0.0354004,0.00579834,0.0151062,0.00900269,-0.025177,-0.00289917,-0.057373,-0.0508118,0.0454712,-0.00259399,-0.0534058,-0.0694275,2.64786,2.64526,0.0178528,0.00320435,0.0288391,0.0686646,0.0665283,-0.000305176,-0.0256348,-0.234985,-0.00366211,0.00366211,-3.15903,-3.17398,-0.137791,0.0296627,1.72352,-15.4636,-89.2097,-99.3745,207.643,-1058.39,0.0770316,-0.0386047,-0.0693512,0.0337601,-0.0336456,0.0146866,0.0270844,-0.0905991,0.0249481,0.190353,0.198059,0.252533,0.199661,-0.172501,0.224686,-0.173149,0.240784,-0.0457382,-0.00419617,-0.0772858,-0.00679016,-0.0772095,-0.165176,0.186195,0.101357,0.219078,-0.0503159,-0.0861359,-0.159149,-0.175438,-0.0183105,0.14019,-0.0696945,0.0167847
662,3,0.00762939,0.0379944,0.0189209,0.0480652,-0.00991821,0.00747681,-0.0218201,0.0306702,-0.0149536,0.00259399,-0.0724792,-0.0500488,0.045166,0.0170898,-0.0828552,-0.0656128,2.65518,2.66678,0.0424194,0.0350952,0.0386047,-0.015564,0.100555,0.00869751,0.00350952,-0.151672,0.00915527,0.017395,-3.18558,-3.18146,0.12934,0.204907,0.292683,-15.462,17.6614,-80.7085,207.643,-1058.39,0.0770316,-0.0253677,-0.0756073,0.0272369,-0.0152206,-0.0118256,0.00999451,-0.0946045,0.0242233,0.196342,0.200005,0.247231,0.207787,-0.176849,0.206528,-0.196304,0.22522,-0.0508881,0.0139999,-0.0612259,0.0146103,-0.119362,-0.181961,0.171432,0.0550079,0.205498,-0.03685,-0.0754547,-0.15625,-0.170364,-0.00804901,0.158234,-0.0394058,0.0088501
662,4,-0.0161743,0.0424194,0.014801,0.0117493,-0.110168,-0.0131226,0.0163269,-0.00701904,-0.00534058,-0.00823975,-0.070343,-0.0379944,0.0192261,-0.0294495,-0.0549316,-0.0520325,2.66312,2.65564,-0.00946045,0.0134277,0.0637817,-0.0608826,0.144196,0.0115967,-0.00778198,-0.104218,0.000305176,-0.00793457,-3.15048,-3.18649,-0.227383,-0.0592093,1.72378,-331.722,-17.9112,-23.7158,207.643,-1058.39,0.0770316,-0.0328064,-0.103569,0.0244904,-0.053978,0.0248718,0.00244141,-0.0941467,0.02388,0.199394,0.206718,0.256271,0.176163,-0.175781,0.221405,-0.175629,0.235748,-0.0595474,0.00125885,-0.0167084,0.00766754,-0.083313,-0.164566,0.19722,0.0778198,0.186272,-0.0686646,-0.0826645,-0.17746,-0.158653,-0.022316,0.140152,-0.0561905,-0.00610352
662,5,-0.00411987,0.0384521,0.00244141,0.00289917,0.260315,0.00289917,0.0163269,0.0144958,-0.0282288,0.00808716,-0.0765991,-0.0283813,0.042572,-0.00793457,-0.0379944,-0.0671387,2.63657,2.65198,-0.0650024,-0.0108337,0.0726318,-0.0775146,0.117188,-0.00762939,0.0434875,-0.0218201,0.0334167,-0.00335693,-3.10913,-3.10349,-0.140253,-0.151823,-0.421485,-196.156,124.598,-5.27018,207.643,-1058.39,0.0770316,-0.0306702,-0.102768,0.019989,-0.0217056,0.00183105,0.0364685,-0.0892639,0.0150681,0.196419,0.196877,0.260582,0.188599,-0.143776,0.22316,-0.177994,0.239487,-0.0595093,-0.0364304,-0.0636673,0.00988007,-0.107689,-0.104332,0.230751,0.102768,0.207138,-0.064888,-0.0518799,-0.263863,-0.201111,-0.0741577,0.15522,-0.0920868,0.00427246
662,6,-0.0132751,0.0370789,-0.00686646,0.00808716,0.183563,-0.022583,0.0256348,0.00930786,-0.017395,0.00366211,-0.0576782,-0.0318909,0.0175476,0.00656128,-0.065155,-0.0541687,2.65259,2.64069,-0.0447083,-0.00183105,0.067749,-0.0917053,-0.0390625,0.00579834,-0.00183105,0.0271606,-0.0265503,0.00686646,-3.02948,-3.00507,-0.31919,0.559616,-0.0649731,-15.3017,-17.719,51.332,207.643,-1058.39,0.0770316,-0.0400543,-0.0842285,0.0134277,-0.0357056,0.00751495,0.0233078,-0.0944138,0.0190353,0.20153,0.214729,0.238533,0.195656,-0.170593,0.212708,-0.176697,0.237617,-0.0776672,-0.0212097,-0.0413132,0.0124741,-0.137444,-0.0938797,0.208778,0.112114,0.219345,-0.0596237,-0.0793076,-0.274544,-0.202332,-0.0449753,0.131645,-0.0970459,-0.000610352
662,7,-0.00762939,0.0245667,0.012207,-0.01297,0.114594,-0.0273132,0.0177002,-0.00793457,-0.0154114,0.0209045,-0.039978,-0.0401306,0.0233459,-0.0300598,-0.055542,-0.0515747,2.64679,2.64465,-0.0236511,0.0189209,0.0448608,-0.0726318,-0.0834656,0.0196838,-0.0190735,0.0500488,-0.0361633,-0.00976562,-2.94708,-2.96646,0.218566,0.0265844,-0.0646608,-60.4211,-160.112,89.3432,207.643,-1058.39,0.0770316,-0.0426483,-0.101509,0.00705719,-0.03685,0.0285339,0.0174713,-0.0901031,0.0203705,0.230255,0.215149,0.248451,0.180321,-0.178185,0.212784,-0.18856,0.239868,-0.0616455,-0.0166321,-0.0405121,0.00919342,-0.0814056,-0.0710297,0.224609,0.0668716,0.237808,-0.057373,-0.065155,-0.275497,-0.237007,-0.0650787,0.12104,-0.0854111,0.0131226
662,8,0.00137329,0.0100708,0.00640869,0.0270081,0.0149536,-0.00183105,-0.00915527,-0.0164795,-0.0471497,0.00595093,-0.0614929,-0.0546265,0.00839233,-0.0276184,-0.0737,-0.0730896,2.65854,2.64374,0.00671387,0.0213623,0.0480652,-0.0631714,-0.0421143,0.020752,0.0152588,0.0947571,0.000457764,0.0177002,-2.89062,-2.88666,-0.0502275,-0.151177,-0.0640354,-15.3607,-53.4312,-5.16725,207.643,-1058.39,0.0770316,-0.0533676,-0.0776672,0.00179291,-0.0387192,0.0124359,0.0378036,-0.113754,0.0140381,0.196877,0.191422,0.223122,0.182228,-0.198975,0.223656,-0.209808,0.223885,-0.0686646,-0.021019,-0.0487518,0.0212097,-0.126953,-0.0875473,0.22007,0.0895309,0.205803,-0.0495911,-0.0928497,-0.302696,-0.187073,-0.0679779,0.126801,-0.0977707,0.0241089
662,9,0.0180054,0.00213623,-0.0146484,0.0198364,0.0343323,-0.00152588,0.00976562,-0.0143433,-0.0212097,0.0274658,-0.0520325,-0.0550842,0.018158,-0.00823975,-0.0564575,-0.0509644,2.61063,2.66617,0.0152588,-0.0184631,0.0579834,-0.0157166,0.0341797,-0.00228882,0.0291443,0.135193,-0.012207,-0.0233459,3.07266,3.05115,0.307793,-0.151738,-0.422006,120.085,-89.2174,-118.386,207.643,-1058.39,0.0770316,-0.0643539,-0.0949097,0.0233078,-0.018692,-0.00507355,0.0511932,-0.0839615,0.0391006,0.233421,0.218658,0.271301,0.174713,-0.1931,0.211716,-0.204926,0.252037,-0.0453186,-0.028801,-0.0498962,-0.00488281,-0.139198,-0.08358,0.233498,0.0878143,0.227127,-0.0520706,-0.102386,-0.265121,-0.211983,-0.0657272,0.134392,-0.109367,0.0128174
663,0,0.0190735,0.0128174,0.0416565,0.0218201,0.035553,-0.0125122,0.00473022,-0.00823975,-0.0442505,0.0192261,-0.0497437,-0.0468445,0.0340271,-0.00289917,-0.0288391,-0.0733948,2.64236,2.62924,0.019989,-0.000915527,0.0405884,0.0154114,-0.0299072,0.00366211,-0.0386047,0.263672,0.0119019,0.0317383,3.29376,3.28857,-0.319988,0.380647,-0.779767,210.584,-17.7761,-5.49284,207.643,-1058.39,0.0770316,-0.00953674,-0.0772095,0.0354767,-0.026207,-0.0461197,0.0524521,-0.0948334,0.0369263,0.21965,0.230713,0.26886,0.177803,-0.176544,0.222511,-0.175171,0.245361,-0.053978,0.0109482,-0.0278854,0.00339508,-0.105286,-0.0933838,0.19268,0.0957489,0.201569,-0.0407028,-0.0811386,-0.288315,-0.199852,-0.0404739,0.143509,-0.0977707,-0.0411987
663,1,0.025177,0.0332642,0.0187683,0.0302124,-0.164185,-0.0115967,0.0297546,0.00427246,-0.0260925,0.0189209,-0.091095,-0.0505066,0.0247192,-0.0233459,-0.0431824,-0.0621033,2.62955,2.66373,-0.0114441,0.00549316,0.0506592,0.0390625,-0.0216675,-0.00686646,-0.0572205,0.259399,-0.0253296,0.019989,3.27911,3.2901,-0.318673,0.0271125,0.293517,-196.129,-17.8525,-5.01956,207.643,-1058.39,0.0770316,-0.0185394,-0.0827026,0.0204086,-0.0426483,-0.0122833,0.0641632,-0.0927734,0.0443649,0.185814,0.210762,0.268707,0.185242,-0.187073,0.232506,-0.167007,0.253487,-0.0505066,0.00549316,-0.0497437,0.0297165,-0.120926,-0.122147,0.218353,0.0818253,0.191269,-0.0150681,-0.0835419,-0.283775,-0.211601,-0.0688934,0.136223,-0.110168,0.0088501
663,2,0.0161743,0.0300598,0.00762939,0.0273132,-0.280457,0.00686646,0.00839233,0.00305176,-0.0186157,0.0144958,-0.059967,-0.0463867,0.0183105,-0.0325012,-0.0500488,-0.0878906,2.66571,2.63214,0.0164795,0.00854492,0.01297,0.0413513,-0.0198364,0.0392151,-0.0744629,0.25238,0.00228882,0.0427246,3.28339,3.30017,-0.588433,0.558936,-0.422214,-60.465,-160.178,51.6352,207.643,-1058.39,0.0770316,-0.0437164,-0.0965881,0.0449753,-0.0373459,-0.034523,0.0405121,-0.112419,0.0415039,0.212555,0.217056,0.257454,0.168877,-0.194283,0.205688,-0.199089,0.233269,-0.0642014,0.0162506,-0.0939941,-0.0297165,-0.349159,-0.0773621,0.158501,0.0954056,0.260086,-0.0760651,-0.121078,-0.463409,-0.348129,-0.115089,0.178642,-0.240135,-0.00305176
663,3,0.00762939,0.00732422,0.0180054,0.0387573,-0.274353,0.0430298,-0.0183105,0.012207,-0.0325012,0.0270081,-0.0631714,-0.0291443,0.0430298,-0.0146484,-0.0788879,-0.065155,2.63718,2.64069,0.00350952,0.0187683,0.00228882,0.052948,-0.0271606,-0.0144958,-0.0204468,0.322418,0.0234985,0.0262451,3.26187,3.28247,0.0405623,0.206149,1.00789,120.203,-17.7931,-5.38766,207.643,-1058.39,0.0770316,-0.043869,-0.0547791,0.0201797,-0.0307465,-0.0234985,0.0196075,-0.08358,0.0650787,0.197105,0.231133,0.271759,0.18589,-0.183754,0.208321,-0.191994,0.23922,-0.0576019,0.0142288,-0.102043,0.0191498,-0.355644,-0.0370407,0.159264,0.0914001,0.258675,-0.0968552,-0.102806,-0.42469,-0.354385,-0.139351,0.187073,-0.252647,-0.0146484
663,4,-0.00762939,0.00106812,0.00991821,0.0166321,-0.198669,0.045166,0.00686646,0.0268555,-0.0131226,0.0154114,-0.0532532,-0.0370789,0.0325012,-0.00793457,-0.0697327,-0.0697327,2.66434,2.6564,0.0279236,0.0559998,-0.00411987,0.0231934,0.040741,-0.0357056,0.0186157,0.367584,0.0102234,0.0222778,3.15628,3.16971,0.666213,-0.0628156,-0.42258,29.7857,-53.4891,-42.9278,207.643,-1058.39,0.0770316,-0.0395584,-0.0911713,0.0252914,-0.0392151,-0.018692,0.0521851,-0.093689,0.0658035,0.199966,0.239601,0.257339,0.169411,-0.185318,0.20607,-0.175743,0.223846,-0.0616074,0.0228119,-0.092926,0.0276947,-0.337448,-0.0305939,0.150528,0.0794601,0.232277,-0.0553513,-0.148811,-0.452194,-0.365334,-0.127678,0.206337,-0.242462,-0.00396729
663,5,-0.0088501,0.0202942,0.0144958,0.000305176,-0.0704956,0.0279236,-0.00259399,-0.00106812,-0.0308228,0.015564,-0.0471497,-0.042572,0.0273132,-0.0186157,-0.0595093,-0.0842285,2.64343,2.64938,0.0482178,0.0604248,0.0209045,-0.00289917,0.0410461,-0.0144958,-0.0198364,0.414429,0.0105286,0.0317383,3.05206,3.06595,-0.499071,-0.33023,-0.778308,210.628,-17.7097,32.2151,207.643,-1058.39,0.0770316,-0.0394821,-0.0883102,0.0196457,-0.0367737,-0.0356674,0.0453186,-0.102997,0.0440979,0.232086,0.228958,0.275078,0.18013,-0.183258,0.215034,-0.195847,0.248795,-0.0658417,0.021286,-0.0610352,0.0146866,-0.343361,-0.0508499,0.125389,0.0769806,0.24601,-0.0820923,-0.113945,-0.4142,-0.353279,-0.112991,0.177803,-0.258064,0.015564
663,6,0.0186157,0.0111389,0.0125122,0.0260925,0.119934,-0.000610352,0.0228882,-0.0340271,-0.0140381,0.0384521,-0.0730896,-0.0608826,0.0476074,-0.000457764,-0.065918,-0.100861,2.64099,2.66068,-0.0062561,-0.00473022,0.0473022,-0.0276184,0.124512,-0.00518799,-0.0430298,0.446472,0.0257874,0.0189209,2.95517,2.95563,-0.229929,0.203582,-0.422006,74.9844,17.7779,-24.2517,207.643,-1058.39,0.0770316,-0.0545883,-0.0764084,0.0346375,-0.0182343,-0.0222397,0.0187302,-0.0986481,0.0559235,0.190468,0.247269,0.270996,0.194626,-0.216103,0.25444,-0.170708,0.22274,-0.0597,0.0176239,-0.111313,-0.00286102,-0.359955,-0.0452805,0.160484,0.0621033,0.266914,-0.0485992,-0.121689,-0.451889,-0.337448,-0.121498,0.203094,-0.205841,-0.0146484
663,7,-0.00167847,0.00549316,0.00411987,0.0244141,0.197144,-0.0262451,0.0135803,-0.0311279,-0.0212097,0.0337219,-0.0686646,-0.0434875,0.0378418,-0.0141907,-0.0688171,-0.108643,2.65182,2.64557,0.0158691,0.0126648,0.0816345,-0.0309753,-0.13916,0.00442505,-0.0389099,0.526123,0.000305176,-0.00198364,2.82272,2.84821,-0.230278,-0.152469,-0.778933,210.571,53.4492,-5.61814,207.643,-1058.39,0.0770316,-0.0515747,-0.0684357,0.0466156,-0.0418854,-0.00240326,0.0114822,-0.0881958,0.0345612,0.196495,0.260429,0.280533,0.196953,-0.221672,0.253258,-0.186539,0.234718,-0.0513077,0.0025177,-0.133476,0.00144958,-0.366364,-0.0239944,0.162125,0.0864029,0.276756,-0.0965118,-0.134544,-0.448456,-0.341454,-0.110474,0.214462,-0.254517,-0.0274658
663,8,0.0143433,0.0187683,0.00457764,-0.00808716,0.0471497,-0.0227356,0.00198364,-0.030365,-0.0288391,0.0253296,-0.0688171,-0.0799561,0.0447083,0.00244141,-0.0662231,-0.0967407,2.63382,2.63977,0.00213623,-0.0408936,0.0593567,-0.0180054,-0.167236,0.0430298,0.0219727,0.607452,-0.00549316,0.0221252,2.74933,2.77679,-0.229463,-0.0623549,-0.0639832,29.838,17.8358,13.5088,207.643,-1058.39,0.0770316,-0.0543213,-0.0696564,0.0370026,-0.019989,-0.0281906,-0.00896454,-0.107422,0.0443649,0.189247,0.252724,0.278397,0.193329,-0.208817,0.24147,-0.15564,0.233803,-0.03582,0.0131607,-0.122681,0.00793457,-0.357437,-0.0611877,0.157471,0.0717163,0.279846,-0.0779343,-0.138779,-0.425911,-0.339699,-0.115166,0.177193,-0.236969,0.0131226
663,9,0.000152588,0.00732422,-0.000305176,-0.0216675,-0.0598145,-0.0132751,-0.00137329,-0.012207,-0.00839233,0.0360107,-0.0512695,-0.058136,0.0752258,-0.000457764,-0.0735474,-0.10788,2.65167,2.66922,0.0260925,-0.0109863,0.110779,0.0178528,-0.063324,0.0234985,0.0572205,0.704651,0.0140381,0.0352478,-1.9133,-1.44165,0.217768,-0.152384,-0.779455,29.7789,-17.8764,-42.9905,207.643,-1058.39,0.0770316,-0.0622559,-0.0693893,0.00675201,-0.0149536,-0.0442123,0.0127029,-0.0963593,0.0781631,0.188751,0.257416,0.295792,0.197525,-0.218124,0.239296,-0.192833,0.214272,-0.0730896,0.0100327,-0.166969,-0.00553131,-0.545692,-0.112762,0.198212,0.0636673,0.272102,-0.13176,-0.240288,-0.484962,-0.451736,-0.248146,0.361328,-0.287132,-0.0119019
664,0,0.0202942,0.00259399,-0.0390625,-0.0328064,0.014801,0.00839233,0.00106812,0.035553,-0.0271606,0.0326538,-0.0524902,-0.0794983,0.0547791,0.00106812,-0.0836182,-0.0842285,2.66327,2.65549,0.014801,-0.0114441,0.0588989,0.0616455,0.0119019,-0.00213623,0.0836182,0.829468,0.00549316,0.0135803,-3.16788,-3.18314,0.129705,0.472103,0.649768,-376.914,-124.791,-42.3292,207.643,-1058.39,0.0770316,-0.0761032,-0.0805664,0.0467682,-0.0315857,-0.00701904,0.0388336,-0.0795364,0.0305176,0.219841,0.258217,0.28904,0.215874,-0.228996,0.254898,-0.165215,0.258522,-0.0858307,-0.0111389,-0.152893,0.0172424,-0.547905,-0.13813,0.167618,0.0476456,0.272064,-0.136185,-0.20359,-0.487251,-0.452309,-0.243645,0.343513,-0.302925,0.017395
664,1,0.00457764,0.0123596,-0.00701904,-0.0224304,0.108643,0.00839233,0.00518799,0.00473022,-0.00396729,0.0306702,-0.0598145,-0.0621033,0.0598145,-0.0256348,-0.0572205,-0.100708,2.66876,2.6741,0.038147,-0.00976562,0.100403,0.0395203,0.421295,0.0656128,0.171356,0.844421,0.0296021,0.0578308,-3.16635,-3.1723,-0.0494463,0.116648,0.650602,165.428,-195.848,-5.12698,207.643,-1058.39,0.0770316,-0.0666428,-0.0833511,0.0663757,-0.035553,-0.00190735,-0.00148773,-0.100021,0.0415039,0.179291,0.246582,0.296783,0.17868,-0.226021,0.250816,-0.186462,0.208549,-0.08255,0.00434875,-0.155067,-0.0177383,-0.534897,-0.15522,0.162964,0.0384903,0.280457,-0.11898,-0.211563,-0.473518,-0.420227,-0.222397,0.350456,-0.296555,0.020752
664,2,-0.000457764,0.00610352,-0.0209045,-0.0205994,-0.0621033,0.0222778,0.00762939,-0.000457764,-0.0106812,0.0436401,-0.0509644,-0.0822449,0.0492859,-0.00167847,-0.0509644,-0.0991821,2.64191,2.63809,0.0233459,0.00610352,0.0971985,0.0741577,0.457153,0.0839233,0.108948,0.784302,0.00686646,0.0292969,-3.18115,-3.16193,0.219449,-0.238723,0.650914,-60.6236,-17.9266,-61.7393,207.643,-1058.39,0.0770316,-0.0511932,-0.0778198,0.0593567,-0.0320816,-0.00572205,0.0323105,-0.0970459,0.0585175,0.194588,0.258865,0.288467,0.20916,-0.213814,0.243492,-0.183601,0.20443,-0.0949478,0.00328064,-0.163841,-0.00988007,-0.523796,-0.171432,0.17395,0.0764847,0.277786,-0.14576,-0.220413,-0.469551,-0.426102,-0.236664,0.350761,-0.269585,-0.0241089
664,3,0.0149536,-0.000915527,-0.00595093,-0.0167847,0.070343,0.0411987,0.00244141,-0.00961304,-0.0178528,0.04776,-0.0956726,-0.0770569,0.0297546,-0.0210571,-0.0456238,-0.101929,2.63062,2.6268,0.0164795,-0.00640869,0.0666809,0.0695801,0.340576,0.0712585,0.0930786,0.793915,0.035553,0.0306702,-3.19382,-3.19061,-0.140303,0.114743,-0.421954,-60.5798,-17.8602,-24.0313,207.643,-1058.39,0.0770316,-0.0564957,-0.0864792,0.0598526,-0.0250626,-0.0140381,-0.00415802,-0.0970459,0.0577545,0.200386,0.240479,0.287514,0.187416,-0.225029,0.245171,-0.17128,0.23613,-0.0918579,0.0176239,-0.133514,-0.0260544,-0.53318,-0.136147,0.185432,0.0374222,0.273247,-0.147362,-0.210571,-0.499954,-0.412445,-0.26371,0.340691,-0.261307,-0.00549316
664,4,0.00991821,-0.00335693,-0.0224304,0.0239563,0.288239,0.0271606,0.0210571,0.00946045,-0.0248718,0.0389099,-0.058136,-0.0556946,0.0369263,-0.0151062,-0.0724792,-0.0900269,2.67242,2.65839,0.00152588,0.0135803,0.01297,0.035553,0.177155,0.0494385,0.0640869,0.771637,0.00152588,0.00137329,-3.16223,-3.18375,-0.588298,-0.151907,-0.420963,-60.4801,-195.824,32.8439,207.643,-1058.39,0.0770316,-0.073967,-0.0680923,0.0816727,-0.0224304,0.00137329,0.0168991,-0.0806427,0.0582123,0.197372,0.277863,0.274849,0.179062,-0.236244,0.236435,-0.15831,0.251465,-0.0948334,0.0171661,-0.171471,-0.00350952,-0.547714,-0.151367,0.197372,0.045929,0.297127,-0.142593,-0.21492,-0.485878,-0.43438,-0.24456,0.359764,-0.289307,-0.0164795
664,5,-0.00656128,0.018158,-0.000457764,-0.0152588,0.214691,0.0326538,0.0088501,0.0294495,-0.032959,0.0160217,-0.0863647,-0.0743103,0.0340271,-0.0141907,-0.0447083,-0.0802612,2.63626,2.65488,0.00350952,0.00640869,-0.000762939,-0.0436401,-0.127411,0.0450134,0.0338745,0.712585,-0.000610352,0.0123596,-3.08823,-3.0751,-0.76918,-0.154457,-1.85097,-196.169,-267.274,-79.9969,63.4133,-952.525,0.0585452,-0.0672531,-0.0790024,0.0608063,0.00141144,-0.0239563,0.0312424,-0.102844,0.0416946,0.185356,0.259895,0.297012,0.176506,-0.215378,0.248146,-0.171051,0.243988,-0.080986,0.0205994,-0.151863,-0.0232315,-0.528641,-0.144806,0.174675,0.0344467,0.283966,-0.102425,-0.222435,-0.482903,-0.415077,-0.224953,0.327263,-0.291786,0.00213623
664,6,-0.01297,-0.00396729,-0.00717163,-0.022583,0.110931,0.0309753,0.00488281,0.0491333,-0.0221252,0.0248718,-0.0715637,-0.0892639,0.038147,0.0164795,-0.0595093,-0.0984192,2.64496,2.65213,0.0192261,0.0375366,0.0367737,-0.0358582,0.0317383,0.0195312,-0.043335,0.675659,0.00320435,0.00793457,-3.02307,-3.04855,0.041428,0.0296964,1.72331,-196.181,-89.1774,-61.4562,207.643,-1058.39,0.0770316,-0.0560379,-0.0847626,0.065918,-0.0220871,-0.0241852,0.0403595,-0.0891876,0.0557327,0.201912,0.245209,0.274429,0.185356,-0.198212,0.244713,-0.186844,0.242538,-0.148849,0.0207138,-0.21965,-0.115471,-0.701904,-0.296555,0.26001,0.0199127,0.383606,-0.207062,-0.588112,-0.285339,-0.212936,-0.716248,0.679283,-0.286255,0.00396729
664,7,0.015564,-0.00656128,0.0239563,0.00244141,0.0933838,0.0418091,0.0166321,-0.00991821,-0.0137329,0.0723267,-0.0823975,-0.0759888,0.0222778,-0.0210571,-0.0491333,-0.0938416,2.67258,2.66159,0.0154114,0.022583,0.0361633,-0.0270081,0.106659,-0.0178528,-0.0643921,0.646973,0.0244141,0.0117493,-2.96616,-2.97302,0.130239,-0.149256,1.00842,391.339,17.8705,-5.76583,207.643,-1058.39,0.0770316,-0.0620651,-0.0717926,0.0621796,-0.0170135,-0.00335693,0.0163651,-0.109406,0.0777435,0.205498,0.252457,0.294952,0.178642,-0.216942,0.253639,-0.183716,0.247231,-0.133781,0.0259018,-0.206184,-0.142479,-0.732689,-0.281105,0.306435,0.0238037,0.39444,-0.211258,-0.551338,-0.282211,-0.206566,-0.729637,0.672302,-0.291862,0.00854492
664,8,-0.00152588,0.0115967,-0.0038147,0.0115967,0.00839233,0.0213623,0.0305176,-0.01297,-0.00579834,0.0398254,-0.0686646,-0.0674438,0.0372314,-0.00778198,-0.0532532,-0.0961304,2.66602,2.66434,0.0132751,0.0296021,0.0485229,-0.00518799,0.132294,-0.057373,-0.0656128,0.542145,0.0154114,0.00518799,-2.86697,-2.90024,0.0385333,-0.0635626,-0.779402,-15.3675,-17.8186,-5.22991,207.643,-1058.39,0.0770316,-0.0547791,-0.0844955,0.0724411,-0.0234604,-0.0182343,0.0265884,-0.0944138,0.0547409,0.19825,0.255737,0.277939,0.196648,-0.2285,0.24662,-0.186462,0.227165,-0.0988007,0.00995636,-0.198593,-0.114937,-0.733261,-0.277824,0.289879,0.0235748,0.393257,-0.218658,-0.569382,-0.279579,-0.228271,-0.734024,0.666656,-0.314751,-0.0289917
664,9,0.0141907,0.000915527,-0.00289917,0.01297,-0.146179,-0.00213623,0.0135803,-0.0160217,-0.0230408,0.0456238,-0.0730896,-0.0743103,0.0473022,-0.0202942,-0.0637817,-0.107727,2.65778,2.67914,0.0325012,0.00534058,0.0485229,0.00305176,0.138245,-0.022583,-0.0747681,0.410004,0.0205994,-0.0038147,2.70859,2.78259,0.129289,0.471474,0.292214,29.7957,124.641,-5.53311,207.643,-1058.39,0.0770316,-0.0644684,-0.0920868,0.0883865,-0.0405121,-0.0217056,0.0325012,-0.10025,0.0424576,0.218925,0.260849,0.27626,0.187531,-0.209274,0.237503,-0.165863,0.24559,-0.108452,-0.0170898,-0.223503,-0.127525,-0.745316,-0.275917,0.279541,0.0251389,0.406342,-0.209084,-0.571442,-0.294037,-0.216522,-0.716934,0.665474,-0.282402,-0.00488281
665,0,0.00900269,0.000152588,0.00518799,0.0344849,-0.329437,0.0157166,0.0315857,0.00244141,-0.00946045,0.0523376,-0.0584412,-0.0994873,0.0569153,-0.00488281,-0.0408936,-0.0863647,2.63733,2.64618,0.00595093,0.0218201,0.0105286,0.0338745,0.00320435,-0.0382996,-0.0227356,0.291748,-0.00686646,0.0088501,3.2753,3.27362,0.485713,0.112974,-1.49534,-15.4772,-17.9844,-99.4998,195.727,-1048.11,0.0728091,-0.0767136,-0.0752258,0.0844574,-0.0195694,0.00968933,-0.0175476,-0.0974274,0.0922012,0.195618,0.284576,0.257301,0.149994,-0.207481,0.242043,-0.206451,0.232468,-0.114975,0.0114059,-0.193977,-0.113716,-0.709724,-0.279236,0.295753,0.0419998,0.399666,-0.214806,-0.571022,-0.302429,-0.254021,-0.740051,0.665779,-0.275993,0.0012207
665,1,0.00411987,0.00320435,-0.00518799,0.0106812,-0.259705,0.0137329,0.0123596,0.0271606,-0.0125122,0.0105286,-0.059967,-0.0720215,0.0587463,0.00640869,-0.0561523,-0.0634766,2.65884,2.64969,-0.027771,-0.00656128,-0.00289917,0.00518799,-0.153961,-0.00244141,-0.00213623,0.231476,0.00335693,-0.00869751,3.30139,3.29666,-0.0493787,-0.238774,0.651227,-60.5949,-53.5061,-42.8226,207.643,-1058.39,0.0770316,-0.0608063,-0.0775909,0.0882339,-0.0069046,-0.0131607,0.00183105,-0.105019,0.0852203,0.205002,0.284271,0.273895,0.163345,-0.220451,0.257607,-0.177002,0.256004,-0.0934982,-0.00087738,-0.227814,-0.115242,-0.727043,-0.276833,0.287132,0.00907898,0.370598,-0.221519,-0.599937,-0.293274,-0.227432,-0.719986,0.697365,-0.292969,0.00213623
665,2,0.0233459,0.0119019,0.00244141,0.000915527,-0.115051,0.0192261,-0.00411987,0.0456238,-0.00488281,0.0186157,-0.0462341,-0.0794983,0.00976562,-0.00732422,-0.0939941,-0.0627136,2.63809,2.66983,0.0131226,0.0180054,0.0598145,0.0505066,-0.261536,0.0279236,0.0378418,0.0973511,0.0242615,-0.0106812,3.29208,3.28918,0.0368357,0.111631,-2.20993,-331.745,-124.815,-61.2358,151.206,-908.29,-0.121419,-0.0911331,-0.0827408,0.0561905,0.000305176,0.0165558,-0.0194168,-0.0925827,0.0671005,0.193443,0.29583,0.26638,0.13031,-0.209579,0.234032,-0.188103,0.218239,-0.133476,-0.0163269,-0.198593,-0.133057,-0.708351,-0.277367,0.271606,0.0154877,0.40184,-0.210075,-0.563927,-0.288925,-0.256271,-0.706024,0.687981,-0.308075,-0.00976562
665,3,0.0402832,0.00274658,0.0189209,0.020752,0.0546265,0.01297,0.0123596,0.0279236,-0.00610352,0.00442505,-0.0605774,-0.0595093,0.0473022,0.0286865,-0.0535583,-0.0708008,2.66434,2.61887,0.0152588,-0.0315857,0.134735,0.0593567,-0.226746,0.030365,0.0143433,0.00869751,0.0294495,-0.0195312,3.24417,3.22433,-0.0490303,0.117277,1.00815,210.468,17.6707,-99.8254,207.643,-1058.39,0.0770316,-0.0618362,-0.0688553,0.0597763,-0.00453949,-0.00286102,-0.000801086,-0.090065,0.0611115,0.200539,0.286865,0.248222,0.175476,-0.192184,0.242462,-0.175743,0.233154,-0.0643158,0.082016,-0.0658417,-0.083313,-0.51815,-0.0922394,0.252647,-0.0613403,0.386047,-0.441856,-0.422211,-0.190849,-0.00286102,-0.517387,0.654335,-0.311584,-0.0140381
665,4,0.0241089,0.020752,0.000152588,0.027771,0.341339,0.0119019,0.0120544,-0.00228882,0.00473022,-0.00411987,-0.0642395,-0.075531,0.0593567,0.0151062,-0.0938416,-0.0701904,2.64099,2.66785,-0.000305176,-0.0106812,0.177307,0.038147,-0.0959778,0.0286865,0.0221252,-0.065918,0.0128174,-0.0466919,3.14896,3.16757,0.036785,0.378197,-2.2104,-15.3675,-17.8186,-5.22991,199.584,-1051.44,0.0741756,-0.0605011,-0.0738907,0.087204,0.00785828,0.0110626,-0.0242615,-0.100136,0.0561523,0.19989,0.28698,0.271263,0.166092,-0.221443,0.232048,-0.183792,0.234299,-0.0832748,0.0746918,-0.0457001,-0.122948,-0.529022,-0.0423431,0.288353,-0.0894928,0.417671,-0.428123,-0.424576,-0.17765,0.018692,-0.525589,0.657768,-0.290413,0.00793457
665,5,0.000915527,-0.0154114,0.00930786,0.00793457,0.224915,-0.00640869,0.0297546,0.010376,-0.000610352,0.00656128,-0.0509644,-0.0720215,0.0257874,-0.0215149,-0.0588989,-0.0836182,2.64893,2.65015,0.0288391,0.00976562,0.14328,0.00747681,-0.190887,-0.0213623,-0.0247192,-0.150604,0.00152588,-0.0390625,3.05573,3.04626,-0.139488,0.204857,0.292996,-286.624,124.448,-80.5809,207.643,-1058.39,0.0770316,-0.0624466,-0.0975037,0.051918,0.00289917,0.00228882,0.00991821,-0.0867844,0.054245,0.199242,0.283546,0.262794,0.141144,-0.218887,0.231934,-0.181236,0.22438,-0.0907898,0.07267,-0.0923538,-0.0843048,-0.500946,-0.0524521,0.293579,-0.0313568,0.40329,-0.42469,-0.439568,-0.213852,0.0127411,-0.512276,0.649567,-0.293427,-0.0296021
665,6,0.0108337,0.0259399,-0.0106812,0.0216675,0.0692749,0.00427246,0.0146484,-0.0164795,-0.0610352,0.0163269,-0.0730896,-0.0794983,0.0550842,-0.0317383,-0.0656128,-0.0819397,2.63275,2.64282,-0.0192261,0.00839233,0.115356,0.00579834,-0.107269,-0.00823975,-0.00396729,-0.165558,0.0106812,-0.00854492,2.94388,2.98004,0.217234,0.468974,-1.1381,165.336,53.3744,-43.2735,254.652,-1203.85,0.278278,-0.0651932,-0.0788879,0.0601196,-0.0200272,0.0266647,-0.0056076,-0.0950241,0.0485992,0.19043,0.267715,0.267334,0.173073,-0.217323,0.234756,-0.180893,0.238762,-0.0906372,0.0603867,-0.0728226,-0.0882721,-0.511169,-0.0875473,0.267105,-0.065155,0.416412,-0.450859,-0.416756,-0.192871,0.000839233,-0.509529,0.6353,-0.330009,0.00427246
665,7,0.00152588,0.0192261,0.0268555,0.0149536,-0.0209045,0.0125122,-0.0164795,0.0050354,-0.0222778,0.00396729,-0.0323486,-0.0743103,0.0675964,0.00946045,-0.0340271,-0.0830078,2.64725,2.61414,0.0209045,-0.0108337,0.157623,0.00793457,-0.0535583,-0.0346375,-0.0132751,-0.173798,0.0158691,-0.0205994,2.83524,2.84058,-0.0514922,-0.0642086,-1.13685,75.0147,89.0695,13.3309,285.958,-1124.35,0.101986,-0.0492477,-0.0812531,0.0470352,0.0376129,0.0247192,-0.00797272,-0.0884247,0.105247,0.210037,0.277786,0.295143,0.178452,-0.176277,0.257759,-0.188255,0.254021,-0.0800323,0.0653458,-0.0268936,-0.0561905,-0.519524,-0.035553,0.308304,-0.0432968,0.411758,-0.457153,-0.42347,-0.177307,-0.0182724,-0.503578,0.655899,-0.318642,-0.00579834
665,8,0.012207,0.0241089,0.0326538,0.00610352,-0.063324,-0.00411987,-0.00732422,-0.0238037,-0.0180054,-0.00656128,-0.0561523,-0.0779724,0.0827026,-0.00793457,-0.0312805,-0.10025,2.63214,2.64267,0.00442505,-0.0222778,0.102692,0.0335693,-0.0224304,0.00518799,-0.0358582,-0.225983,0.020752,-0.039978,2.74796,2.75101,-0.138572,-0.238161,1.00888,74.986,124.649,-5.58569,207.643,-1058.39,0.0770316,-0.0309753,-0.0615692,0.0437546,0.0302505,0.0111389,-0.0118637,-0.110283,0.0912476,0.185432,0.275383,0.293579,0.16037,-0.190277,0.238991,-0.1968,0.254555,-0.079689,0.052681,-0.0880432,-0.106277,-0.512009,-0.0642014,0.298996,-0.0920868,0.401497,-0.428047,-0.439072,-0.19371,-0.019455,-0.537796,0.653305,-0.316429,-0.00152588
665,9,-0.00274658,0.000305176,0.0299072,0.00762939,0.000610352,0.0238037,-0.00457764,0.00991821,-0.00152588,-0.000915527,-0.0360107,-0.0619507,0.0621033,-0.00930786,-0.0698853,-0.068512,2.66052,2.66251,-0.0300598,-0.0288391,0.0480652,0.0453186,-0.0108337,0.0233459,-0.0349426,-0.28595,0.0192261,-0.0488281,-1.88339,-1.69281,0.126411,0.289359,-2.21034,-151.06,160.087,-80.8014,280.155,-990.07,-0.127534,-0.0572586,-0.0895309,0.0496674,0.0475693,0.0234222,0.00961304,-0.0954056,0.110817,0.20546,0.304794,0.300484,0.163307,-0.20031,0.241547,-0.180702,0.257149,-0.0846481,0.051918,-0.0860977,-0.0804901,-0.524559,-0.0610352,0.283546,-0.0595474,0.421638,-0.397987,-0.421982,-0.189056,0.00675201,-0.538712,0.643196,-0.312653,0.00274658
666,0,0.0239563,-0.0132751,0.00686646,0.00946045,0.0280762,-0.0128174,-0.027771,-0.0106812,-0.0170898,0.0125122,-0.0520325,-0.0498962,0.0460815,-0.00717163,-0.0660706,-0.0875854,2.64618,2.65961,0.0125122,-0.0128174,-0.00823975,0.0402832,0.0352478,0.0213623,-0.0265503,-0.276337,0.0106812,-0.0302124,-3.17383,-3.20801,-0.139404,-0.23942,0.293778,29.8531,53.4816,32.3002,207.643,-1058.39,0.0770316,-0.0614166,-0.0794983,0.0549698,0.0214767,0.00610352,-0.0229645,-0.106583,0.111656,0.199928,0.277023,0.294838,0.155449,-0.193787,0.245819,-0.16861,0.228043,-0.0936508,0.0625229,0.0498581,0.102921,-0.274391,0.11219,0.0448227,-0.0835419,0.414314,-0.564079,-0.208397,-0.121918,-0.0318146,-0.145836,0.471878,-0.362854,0.00823975
666,1,0.0291443,0.0195312,-0.00915527,0.0276184,0.0437927,-0.00320435,0.0149536,0.0102234,-0.01297,0.0178528,-0.0469971,-0.058136,0.0527954,-0.0088501,-0.0840759,-0.071106,2.65015,2.63794,-0.0012207,0.035553,0.0379944,0.0665283,0.0286865,-0.0216675,-0.0132751,-0.260773,0.0238037,-0.0164795,-3.18436,-3.16452,0.218499,0.382006,-0.0652861,29.747,-196.039,-99.2391,207.643,-1058.39,0.0770316,-0.0754929,-0.088768,0.0348663,0.00278473,0.0409317,0.00915527,-0.0968933,0.0883865,0.19722,0.285568,0.310249,0.173073,-0.225258,0.242119,-0.186844,0.238113,-0.100555,0.0846481,0.0507355,0.106659,-0.241203,0.137711,0.0667572,-0.0608063,0.413742,-0.535469,-0.218697,-0.145187,-0.0519943,-0.149956,0.485229,-0.352097,-0.0134277
666,2,0.00274658,-0.0210571,-0.00167847,-0.0062561,0.0613403,-0.000152588,0.0193787,0.0465393,0.00564575,0.0224304,-0.0553894,-0.0823975,0.0563049,-0.00610352,-0.062561,-0.0759888,2.65915,2.67502,0.0105286,0.0506592,0.0265503,0.0233459,-0.0402832,0.00427246,0.000915527,-0.298004,0.0466919,0.00839233,-3.1514,-3.16254,-0.048665,0.384472,1.36524,-105.929,124.383,-137.353,207.643,-1058.39,0.0770316,-0.0628662,-0.0927734,0.0355911,0.0287628,0.0194931,0.0206375,-0.0821304,0.109901,0.178947,0.246353,0.288658,0.157967,-0.178223,0.241508,-0.199661,0.236816,-0.0856781,0.0611496,0.0771713,0.101776,-0.256157,0.156174,0.0570679,-0.076561,0.427628,-0.535851,-0.220833,-0.149612,-0.0424957,-0.160828,0.480614,-0.354614,0.00610352
666,3,0.0250244,-0.00595093,0.0160217,-0.00396729,0.00183105,0.0430298,0.0100708,0.0128174,0.00427246,0.0126648,-0.0430298,-0.0704956,0.0679016,0.0120544,-0.0535583,-0.0627136,2.66769,2.66617,-0.00808716,0.0134277,0.00335693,-0.000152588,-0.0627136,-0.0160217,0.00976562,-0.301208,-0.00915527,0.0138855,-3.18344,-3.21518,0.0414111,0.118552,1.72316,-105.713,-89.0277,13.8546,207.643,-1058.39,0.0770316,-0.039711,-0.0785065,0.0354767,0.037384,0.043602,0.0235748,-0.0837708,0.109673,0.209122,0.284309,0.315857,0.159683,-0.156708,0.249786,-0.14328,0.245667,-0.100212,0.0803757,0.0315094,0.122414,-0.255585,0.115509,0.076561,-0.0880051,0.405998,-0.530777,-0.213699,-0.129929,-0.0348282,-0.149918,0.470314,-0.37487,0.0204468
666,4,0.00747681,-0.00579834,0.014801,-0.0115967,-0.00854492,-0.00244141,0.018158,-0.0131226,-0.0238037,-0.000915527,-0.0590515,-0.0747681,0.08255,-0.0219727,-0.0595093,-0.0486755,2.61612,2.63,0.0238037,0.0135803,0.0195312,0.0108337,-0.0267029,0.0209045,0.0334167,-0.284729,0.0360107,0.0398254,-3.16757,-3.17719,-0.231975,0.0227255,-2.20946,120.082,160.138,-81.1169,280.178,-1112.78,0.0883434,-0.078125,-0.0879669,0.0491714,0.042038,0.0543213,0.0094223,-0.109863,0.119896,0.211906,0.248871,0.301285,0.169525,-0.183449,0.238838,-0.194893,0.23262,-0.0642014,0.0679016,0.0543976,0.115051,-0.259132,0.121765,0.0461578,-0.0742722,0.415077,-0.530434,-0.238075,-0.127106,-0.0365448,-0.177574,0.472183,-0.353355,-0.0213623
666,5,0.00656128,-0.00946045,0.00228882,0.0088501,0.0566101,-0.0314331,-0.000457764,-0.0157166,-0.0125122,0.00411987,-0.0311279,-0.071106,0.0654602,-0.0263977,-0.0468445,-0.038147,2.64359,2.64755,-0.00152588,0.0253296,0.0396729,0.0236511,0.0195312,0.0291443,0.00305176,-0.336456,0.0424194,0.0309753,-3.08701,-3.10822,-0.139005,-0.149935,0.651175,29.8279,-160.294,-23.8859,207.643,-1058.39,0.0770316,-0.078392,-0.0589752,0.0362396,0.019455,0.0574112,0.00457764,-0.103569,0.116425,0.235176,0.261116,0.292091,0.177116,-0.186195,0.256653,-0.200729,0.234909,-0.0824356,0.0528717,0.0411987,0.10498,-0.280724,0.138321,0.0659943,-0.08255,0.396729,-0.518608,-0.20668,-0.143394,-0.0470734,-0.213318,0.476151,-0.356102,0.00793457
666,6,-0.00167847,-0.012207,-0.00656128,0.00564575,-0.0498962,-0.00549316,0.0187683,0.0149536,-0.00823975,0.00411987,-0.0282288,-0.0718689,0.0759888,-0.0326538,-0.0511169,-0.0558472,2.65778,2.64786,0.0256348,0.0572205,0.0234985,0.0183105,0.0152588,0.00656128,-0.0038147,-0.325165,0.0238037,0.0268555,-3.01682,-3.03925,0.219814,0.0284718,1.008,74.9051,88.9037,-80.939,207.643,-1058.39,0.0770316,-0.0646973,-0.0791168,0.031662,0.0608826,0.0444031,0.0267792,-0.0988007,0.126419,0.231094,0.252686,0.284615,0.157127,-0.189857,0.245476,-0.193596,0.23632,-0.0894928,0.0737762,0.0624084,0.105667,-0.220299,0.140915,0.0774765,-0.0676727,0.395966,-0.518608,-0.221977,-0.147781,-0.0229645,-0.143166,0.473175,-0.353699,-0.00427246
666,7,0.00335693,-0.0265503,-0.00961304,0.00411987,-0.286255,-0.0352478,0.01297,-0.00350952,0.010376,0.00640869,-0.0395203,-0.0721741,0.0634766,-0.0415039,-0.0634766,-0.0288391,2.63916,2.65533,0.0299072,0.038147,-0.00564575,0.0210571,-0.0991821,0.0198364,0.0212097,-0.345917,0.0337219,0.0730896,-2.93839,-2.96448,-0.138971,-0.327646,0.651488,29.7299,124.541,-62.0951,207.643,-1058.39,0.0770316,-0.0902939,-0.0828171,0.0336075,0.0469208,0.0522232,0.00156403,-0.0822067,0.109215,0.242462,0.27256,0.297165,0.159416,-0.191574,0.242615,-0.175133,0.23056,-0.080452,0.105743,0.0839233,0.150948,-0.0134277,0.0275421,-0.260658,-0.21862,0.322609,-0.551376,-0.180435,-0.147591,-0.0424194,0.0151062,0.260506,-0.0616074,-0.00579834
666,8,0.018158,0.00442505,0.0198364,0.0262451,-0.112,0.00198364,0.00961304,0.00717163,0.00991821,-0.0198364,-0.0314331,-0.0614929,0.0613403,-0.043335,-0.0518799,-0.030365,2.65366,2.62589,0.0257874,0.0108337,-0.0128174,0.000152588,-0.107422,0.0134277,-0.00183105,-0.327606,0.00167847,0.0535583,-2.89673,-2.88483,-0.139522,0.382568,0.292684,-15.3794,160.278,13.3108,207.643,-1058.39,0.0770316,-0.0704193,-0.0616074,0.0300217,0.0496292,0.053978,0.0151443,-0.0762177,0.122948,0.212288,0.282402,0.284615,0.165062,-0.194283,0.243225,-0.18898,0.242004,-0.0333786,0.104599,0.0931931,0.150223,-0.0304413,0.072937,-0.259857,-0.231133,0.366287,-0.539818,-0.193596,-0.145226,-0.0471497,0.0018692,0.251236,-0.0415421,0.000610352
666,9,-0.0131226,-0.0111389,0.0144958,0.0305176,0.0944519,0.0109863,0.0195312,-0.00473022,-0.0177002,0.0178528,-0.0331116,-0.0639343,0.0883484,-0.0379944,-0.0744629,-0.0274658,2.66083,2.68036,0.0186157,0.012207,0.00946045,-0.0497437,-0.0460815,0.0125122,-0.000457764,-0.3685,0.0247192,0.0720215,2.90741,2.86301,-0.317043,0.20734,1.72342,-15.4233,160.212,-24.3972,207.643,-1058.39,0.0770316,-0.0630569,-0.0566483,0.0614548,0.0347519,0.0749588,-0.00221252,-0.107002,0.130234,0.250893,0.277939,0.279465,0.159607,-0.194778,0.256691,-0.137558,0.237427,-0.0758362,0.0703049,0.058403,0.130806,-0.0463486,0.0488281,-0.295181,-0.241089,0.359077,-0.541573,-0.173836,-0.164757,-0.071907,-0.0154114,0.261574,-0.0533676,0.0112915
667,0,0.0315857,-0.0288391,0.0360107,0.0213623,0.045166,0.0288391,-0.00366211,0.0175476,-0.0192261,0.00549316,-0.0354004,-0.0613403,0.0662231,-0.0265503,-0.0584412,-0.04776,2.6355,2.66846,0.0349426,0.0140381,0.00366211,0.0149536,-0.0773621,0.0506592,-0.00305176,-0.354309,0.0123596,0.0276184,3.27957,3.26965,-0.0502782,0.115389,-0.0645043,-150.91,-53.4235,13.8445,207.643,-1058.39,0.0770316,-0.074234,-0.0688171,0.00907898,0.0522614,0.0410461,0.000152588,-0.101547,0.114326,0.229836,0.264359,0.307045,0.146675,-0.190315,0.236855,-0.180664,0.233955,-0.0679779,0.0908661,0.0668716,0.158768,-0.0139618,0.0634384,-0.255051,-0.217514,0.359383,-0.525703,-0.14328,-0.146713,-0.0430298,-0.0153351,0.248833,-0.0546646,-0.00671387
667,1,0.0312805,-0.0170898,0.00732422,0.00366211,0.00549316,0.0228882,0.0196838,-0.00106812,-0.0248718,0.0234985,0.000305176,-0.0888062,0.0799561,-0.0405884,-0.0610352,-0.0431824,2.6416,2.64938,0.0312805,0.0363159,0.0271606,0.0308228,0.0254822,0.0354004,-0.00549316,-0.354309,0.0439453,0.0584412,3.25745,3.29742,-0.228597,-0.238807,0.651436,120.225,-17.7599,13.4663,207.643,-1058.39,0.0770316,-0.0618362,-0.11219,0.0648117,0.0630951,0.0605392,0.00988007,-0.0901794,0.145645,0.247269,0.260582,0.309334,0.180893,-0.224075,0.275574,-0.186424,0.249977,-0.0689316,0.102997,0.08564,0.118599,-0.0391769,0.0808716,-0.273743,-0.230827,0.352554,-0.540543,-0.150986,-0.148048,-0.0703049,-0.0159836,0.260429,-0.0463486,-0.00915527
667,2,0.0178528,-0.00610352,0.00152588,0.0187683,-0.209045,0.0205994,0.00793457,0.00488281,0.00518799,0.00778198,-0.00289917,-0.0672913,0.0605774,-0.018158,-0.0665283,-0.0398254,2.6297,2.6416,0.0238037,0.0212097,0.00640869,0.0366211,0.106812,-0.00183105,-0.000762939,-0.370636,0.0363159,0.0624084,3.28537,3.2959,-0.0498116,-0.150547,0.293517,74.9844,17.7779,-24.2517,207.643,-1058.39,0.0770316,-0.0793076,-0.0929642,0.0296783,0.054512,0.0694656,0.0038147,-0.0925827,0.160179,0.218239,0.297585,0.297508,0.196037,-0.223198,0.27565,-0.180168,0.264282,-0.0688934,0.103416,0.08564,0.119705,-0.0361252,0.0242996,-0.268402,-0.225334,0.358353,-0.547638,-0.157433,-0.183716,-0.0680542,-0.0174713,0.254097,-0.0376511,-0.00427246
667,3,0.0315857,-0.00701904,0.00335693,0.0167847,-0.336304,0.0236511,0.0428772,-0.000610352,0.0297546,0.0131226,0.00473022,-0.0843811,0.0733948,-0.059967,-0.080719,-0.0263977,2.66861,2.63092,0.0175476,0.0434875,0.0218201,0.0494385,0.106506,0.0138855,0.00854492,-0.341949,0.0184631,0.0602722,3.2753,3.25974,-0.0502275,-0.151177,-0.0640354,-15.3253,-124.623,13.812,207.643,-1058.39,0.0770316,-0.0880051,-0.100746,0.0262833,0.078125,0.0530624,0.00522614,-0.0927734,0.156174,0.219955,0.297394,0.303955,0.168266,-0.232468,0.260086,-0.180817,0.258179,-0.0698853,0.0949097,0.0652695,0.12104,-0.034523,0.0114441,-0.271034,-0.22953,0.339928,-0.532608,-0.17025,-0.161285,-0.0592804,0.00869751,0.258369,-0.0648499,-0.00152588
667,4,0.0109863,-0.0222778,-0.0196838,0.0140381,-0.257874,0.0320435,0.0105286,0.0511169,0.000457764,0.0108337,-0.0204468,-0.113525,0.0717163,-0.0372314,-0.0523376,-0.0205994,2.67166,2.65732,0.00244141,0.0318909,-0.0105286,0.0448608,0.130463,0.0263977,0.00350952,-0.35553,0.0358582,0.0178528,3.14041,3.12607,-0.137425,0.296858,2.08061,-105.77,-17.8687,-23.9787,207.643,-1058.39,0.0770316,-0.0729752,-0.105515,0.0533295,0.0838852,0.0490952,-0.00331879,-0.0740814,0.166588,0.225906,0.253868,0.29705,0.168762,-0.231133,0.284195,-0.177078,0.267792,-0.0535202,0.0619125,0.0994492,0.183067,-0.0409317,-0.0392914,-0.237846,-0.287018,0.302887,-0.256805,-0.225487,-0.112343,-0.117188,0.11322,0.140648,0.0543213,0.00183105
667,5,0.0236511,-0.00930786,0.00259399,-0.0050354,0.0415039,0.018158,0.00640869,0.0274658,-0.0115967,0.014801,-0.0204468,-0.0881958,0.0698853,-0.017395,-0.0622559,-0.0358582,2.66769,2.65717,0.00610352,0.0177002,-0.000915527,0.059967,0.117188,-0.0050354,0.0263977,-0.343323,0.0352478,-0.0193787,3.04672,3.02505,-0.315862,0.564649,2.79545,-331.801,53.2146,-80.4031,207.643,-1058.39,0.0770316,-0.0640869,-0.110703,0.0299454,0.0797653,0.0536346,0.0031662,-0.115585,0.13485,0.210953,0.266228,0.308838,0.202446,-0.217514,0.269203,-0.193214,0.25032,-0.024147,0.107689,0.129814,0.1511,-0.0456619,-0.03685,-0.220451,-0.288429,0.294266,-0.239105,-0.217056,-0.125618,-0.0984192,0.120506,0.160103,0.0672913,0.0180054
667,6,0.0172424,-0.0172424,-0.00808716,0.0169373,0.162201,0.0392151,-0.00778198,0.0250244,-0.0247192,-0.0137329,-0.00762939,-0.0769043,0.0590515,-0.0361633,-0.0698853,-0.0360107,2.65305,2.65427,0.0265503,0.0341797,-0.000915527,0.0708008,0.0816345,0.000305176,0.00198364,-0.386658,0.0050354,-0.0144958,2.93152,2.95853,-0.498706,-0.0630346,-0.421224,29.7267,-89.2012,-99.4271,207.643,-1058.39,0.0770316,-0.0682068,-0.0940323,0.0374222,0.0683212,0.0720978,0.00656128,-0.104218,0.1297,0.223846,0.268974,0.306892,0.200462,-0.220222,0.275536,-0.190315,0.262299,-0.043869,0.0806808,0.114594,0.13855,-0.0177765,-0.0852966,-0.215721,-0.282173,0.303459,-0.230942,-0.216675,-0.126457,-0.13237,0.12394,0.131035,0.0754166,-0.00762939
667,7,0.0209045,-0.032959,0.00732422,-0.000305176,0.0177002,0.0294495,-0.000610352,0.0326538,-0.0151062,0.0274658,-0.0183105,-0.0706482,0.0900269,-0.0390625,-0.0497437,-0.045166,2.63504,2.66739,0.0294495,0.0134277,-0.0163269,0.0569153,0.0442505,-0.00396729,-0.00900269,-0.354767,0.0149536,-0.00137329,2.845,2.85812,-0.40913,0.114693,-0.421641,-60.6068,124.59,-24.2819,207.643,-1058.39,0.0770316,-0.0550461,-0.108299,0.0100708,0.0820923,0.043335,0.00793457,-0.0957489,0.152397,0.236969,0.259018,0.325813,0.172234,-0.207443,0.267487,-0.178146,0.254173,-0.0481033,0.0630188,0.136452,0.137329,-0.0125504,-0.0520706,-0.237122,-0.291901,0.313568,-0.271797,-0.223389,-0.128174,-0.111847,0.132217,0.136681,0.0749588,-0.0100708
667,8,0.0294495,-0.0143433,-0.0170898,-0.010376,0.0810242,0.00396729,0.0111389,-0.00137329,-0.00564575,0.0219727,-0.00900269,-0.101166,0.0810242,-0.0668335,-0.0474548,-0.0183105,2.64526,2.62466,0.0146484,0.0386047,-0.00640869,0.0369263,0.119324,-0.0196838,0.0241089,-0.381775,0.019989,0.0210571,2.74124,2.7359,-0.230311,0.025242,-0.779246,120.146,53.3659,-43.2209,207.643,-1058.39,0.0770316,-0.0768661,-0.0999832,0.0296021,0.0954056,0.0432968,0.0580215,-0.0955963,0.169716,0.270538,0.258293,0.351486,0.180359,-0.22007,0.294533,-0.164185,0.243683,-0.0479126,0.0740814,0.154114,0.154381,-0.00366211,-0.0510788,-0.21965,-0.261726,0.305328,-0.260735,-0.184708,-0.106964,-0.0804138,0.131569,0.147591,0.0681305,-0.00183105
667,9,0.00396729,-0.0119019,0.0062561,0.038147,0.0468445,0.00350952,0.0178528,-0.00274658,-0.00976562,0.0230408,-0.0144958,-0.0907898,0.0973511,-0.0737,-0.0535583,-0.0137329,2.659,2.62314,0.00640869,-0.00595093,-0.0112915,-0.0639343,0.0720215,-0.00961304,0.00808716,-0.35141,-0.00808716,0.00823975,-1.92551,-1.35498,0.221028,0.20807,2.08035,75.0199,-53.4142,-5.27243,207.643,-1058.39,0.0770316,-0.0623703,-0.0780487,0.0457382,0.0867844,0.0389862,0.0574875,-0.103683,0.188828,0.245209,0.268822,0.341988,0.184135,-0.20977,0.297203,-0.18425,0.271721,-0.0331116,0.103226,0.116997,0.152283,-0.00999451,-0.0896454,-0.240479,-0.280304,0.313568,-0.26104,-0.196228,-0.112038,-0.114059,0.131416,0.147133,0.0749969,-0.0119019
668,0,-0.0230408,-0.0218201,0.0305176,-0.00640869,0.0115967,0.00732422,0.0231934,0.000762939,-0.0250244,0.0123596,-0.0263977,-0.085907,0.102234,-0.0434875,-0.071106,-0.0265503,2.66739,2.61963,-0.0123596,-0.0228882,-0.0309753,-0.0985718,0.0628662,0.015564,0.0442505,-0.417023,0.017395,-0.014801,-3.16742,-3.16956,0.129373,0.0271967,0.292996,-150.903,-89.0362,13.9071,207.643,-1058.39,0.0770316,-0.0682449,-0.076561,0.0453186,0.0616455,0.0699997,0.0548935,-0.101814,0.18261,0.251427,0.259895,0.353279,0.188828,-0.208435,0.282211,-0.17765,0.22541,-0.0307083,0.0699234,0.12825,0.131683,-0.0383377,-0.0675201,-0.250168,-0.295982,0.298347,-0.247192,-0.207863,-0.129776,-0.103683,0.118599,0.129356,0.0795364,-0.000610352
668,1,0.0280762,-0.00564575,0.01297,0.0267029,0.0259399,0.0177002,0.0111389,0.035553,0.0140381,0.00854492,-0.0114441,-0.0939941,0.10437,-0.0578308,-0.0512695,-0.0276184,2.62741,2.69272,-0.0135803,-0.0299072,-0.0778198,-0.120697,0.0382996,0.0393677,0.0215149,-0.385132,0.0489807,-0.00747681,-3.1546,-3.18161,0.127743,-0.15303,-1.1369,74.9657,231.487,-5.77365,411.242,-1124.33,-0.0438008,-0.0719833,-0.0715637,0.0671387,0.0505447,0.0568771,0.0190735,-0.0777054,0.189018,0.253754,0.280647,0.348129,0.174332,-0.209961,0.287552,-0.180092,0.275192,-0.0371552,0.0821686,0.143318,0.130577,0.0125504,-0.0361633,-0.11795,-0.32711,0.285263,-0.146065,-0.263748,-0.0333786,-0.153313,0.0321198,0.0575256,0.0820541,0.0152588
668,2,-0.0169373,-0.00320435,0.00396729,0.000305176,0.0541687,-0.0126648,-0.00137329,0.00579834,-0.00640869,0.00198364,-0.0131226,-0.117188,0.10437,-0.0576782,-0.0653076,-0.00961304,2.64999,2.69531,-0.00808716,-0.0289917,-0.119324,-0.0834656,0.0552368,0.00762939,0.0105286,-0.404205,0.0370789,-0.00946045,-3.18176,-3.17612,0.127676,0.202391,-1.13753,75.0098,-231.544,-42.6671,4.06898,-1124.4,0.430006,-0.0605392,-0.0861359,0.0544739,0.0608063,0.043335,0.0418854,-0.113487,0.168839,0.241508,0.243683,0.344734,0.203629,-0.227318,0.324936,-0.175476,0.266914,-0.0218964,0.0743103,0.126877,0.13031,-0.0124359,-0.0477219,-0.0873947,-0.34771,0.274887,-0.171928,-0.246925,-0.0259018,-0.169067,0.0218582,0.0516891,0.106087,-0.000915527
668,3,-0.00274658,-0.0161743,-0.0256348,-0.000305176,-0.00442505,-0.00854492,0.0288391,0.00213623,0.000152588,0.0119019,-0.00930786,-0.078125,0.0708008,-0.0637817,-0.0836182,-0.0320435,2.63596,2.63885,-0.0100708,-0.0134277,-0.0836182,-0.0276184,0.0120544,0.0300598,0.032196,-0.44281,0.0111389,-0.0260925,-3.18115,-3.15521,0.21815,0.0259553,-0.422215,74.9489,88.97,-43.231,207.643,-1058.39,0.0770316,-0.0727081,-0.104904,0.0395584,0.0696182,0.0325012,0.0609589,-0.0952911,0.168648,0.254745,0.286789,0.337677,0.179939,-0.222969,0.283928,-0.18383,0.255699,-0.00240326,0.068779,0.107002,0.109749,-0.00606537,-0.0617981,-0.121307,-0.319214,0.291176,-0.17868,-0.283852,-0.041275,-0.199432,0.0132751,0.0788116,0.0632858,-0.0131226
668,4,0.0170898,-0.00991821,0.00564575,0.0335693,-0.0419617,0.0312805,0.00396729,0.0358582,-0.000610352,0.0140381,-0.0457764,-0.0924683,0.0975037,-0.0608826,-0.0535583,-0.0186157,2.64847,2.6741,-0.00595093,0.0250244,-0.045166,0.050354,0.0115967,0.0187683,0.00701904,-0.503693,0.0344849,-0.00656128,-3.16742,-3.18161,0.220213,0.117956,1.3654,-60.6962,17.5865,-118.364,207.643,-1058.39,0.0770316,-0.0588226,-0.071106,0.0165558,0.0714493,0.0377274,0.0258636,-0.0923538,0.192108,0.229874,0.263252,0.334282,0.180473,-0.21759,0.313797,-0.179291,0.226402,-0.0136566,0.108032,0.129166,0.131149,0.0158691,-0.0369644,-0.119362,-0.351639,0.278969,-0.182724,-0.251122,-0.0122833,-0.156975,0.0253296,0.0725174,0.0794601,0.00213623
668,5,0.0143433,-0.019989,0.000915527,-0.00839233,0.019989,0.022583,0.0195312,0.0271606,-0.00732422,0.0213623,0.0326538,-0.120239,0.0965881,-0.133209,-0.067749,-0.0393677,2.63321,2.6329,-0.0012207,-0.0128174,-0.0822449,0.0549316,-0.0189209,0.00564575,0.00747681,-0.562286,0.0128174,-0.0115967,-3.10486,-3.10394,0.484898,0.0228602,-2.21029,-60.6456,-17.9598,-80.5933,199.58,-1030.99,0.0381961,-0.0997925,-0.120583,0.0127029,0.127029,0.0261307,0.0160599,-0.0970078,0.184669,0.273209,0.293274,0.335197,0.191956,-0.245132,0.290108,-0.191116,0.284424,0.00679016,0.0858307,0.134048,0.132675,-0.00202179,-0.04673,-0.0943756,-0.33638,0.287323,-0.199776,-0.2388,-0.00610352,-0.174332,-0.000610352,0.0688553,0.097847,-0.000305176
668,6,0.0146484,-0.00732422,0.00106812,0.0135803,-0.13092,0.00457764,0.0259399,0.0236511,-0.00915527,0.00747681,0.0244141,-0.113068,0.0863647,-0.104065,-0.0740051,-0.0216675,2.66541,2.64999,-0.0245667,-0.0231934,-0.040741,0.035553,0.00320435,0.0108337,0.00335693,-0.584259,0.0325012,-0.0480652,-3.02277,-3.05634,0.396986,-0.152351,-0.779663,-60.622,88.9445,-43.0732,207.643,-1058.39,0.0770316,-0.1054,-0.119324,0.0363541,0.0786972,0.042305,0.0350189,-0.101395,0.161171,0.279961,0.286255,0.3339,0.19207,-0.237846,0.277023,-0.165825,0.295563,0.0204468,0.0577927,0.122757,0.133133,-0.00766754,-0.052681,-0.100441,-0.306129,0.297623,-0.163651,-0.237808,-0.0182724,-0.203209,0.0139236,0.0518417,0.0819016,-0.0201416
668,7,0.00839233,-0.010376,-0.0187683,0.012207,-0.148315,-0.00289917,0.00671387,0.0396729,-0.00976562,0.01297,0.045166,-0.08255,0.0874329,-0.106201,-0.0799561,-0.0424194,2.63672,2.63794,-0.0161743,-0.00350952,-0.0369263,-0.0178528,0.0123596,0.0126648,0.0346375,-0.694122,0.0236511,-0.0566101,-2.94464,-2.96585,-0.226169,0.120389,2.79613,120.095,88.9122,-80.9916,207.643,-1058.39,0.0770316,-0.0955963,-0.128784,0.00663757,0.0801086,0.0314331,0.024147,-0.0805664,0.19371,0.271568,0.29789,0.345535,0.175591,-0.237236,0.284996,-0.201302,0.295525,0.018959,0.0797272,0.116196,0.134201,-0.0152969,-0.0465393,-0.100365,-0.315475,0.315056,-0.136833,-0.256004,-0.0214767,-0.177803,0.00137329,0.0651169,0.0688553,0.0143433
668,8,-0.00991821,0.00579834,0.00473022,0.0219727,0.128632,0.0244141,0.00946045,-0.00686646,-0.00839233,0.00396729,0.0250244,-0.101013,0.0976562,-0.111237,-0.0259399,-0.0248718,2.67914,2.64725,-0.0518799,0.010376,-0.0456238,-0.0062561,0.00244141,0.0195312,0.0335693,-0.835419,-0.0158691,-0.0628662,-2.89459,-2.90085,-0.136059,-0.323242,3.15436,-15.5565,53.1414,-156.187,207.643,-1058.39,0.0770316,-0.0905228,-0.129585,0.0400543,0.113831,0.00473022,0.0282288,-0.127754,0.158691,0.273743,0.283127,0.341835,0.192223,-0.235023,0.294495,-0.183029,0.309143,0.00980377,0.0471878,0.12928,0.125046,-0.00946045,-0.0521088,-0.0971603,-0.0323486,0.255928,-0.131035,-0.24868,-0.0489426,-0.18158,0.0559235,0.0620651,0.00484467,-0.00244141
668,9,0.0114441,-0.0012207,-0.00137329,-0.0325012,0.206451,0.0338745,-0.00686646,-0.0146484,0.0126648,0.00396729,0.0120544,-0.102692,0.0996399,-0.126953,-0.0521851,-0.050354,2.65381,2.66052,-0.0474548,0.0271606,0.0177002,-0.0120544,-0.0157166,-0.00854492,0.0299072,-0.8992,0.0428772,-0.0444031,2.59857,2.3703,0.128626,-0.418338,-0.421329,-151.078,-89.3016,-136.925,207.643,-1058.39,0.0770316,-0.0893784,-0.122948,-0.0215149,0.0834274,0.0110626,0.0324249,-0.0834656,0.18177,0.275764,0.263977,0.347595,0.182877,-0.232506,0.274124,-0.180244,0.259209,0.000572205,0.0540924,0.134926,0.115776,0.00286102,-0.0640106,-0.0790787,-0.0681686,0.235825,-0.125542,-0.25898,-0.020256,-0.167961,0.0316238,0.0547791,0.025177,0.0134277
669,0,-0.00137329,0.0177002,-0.00488281,-0.00854492,0.136871,-0.0134277,0.00717163,0.0344849,-0.0151062,0.000915527,0.00930786,-0.10376,0.105743,-0.109406,-0.0410461,-0.03479,2.64832,2.68829,-0.0204468,0.0315857,0.0212097,0.0062561,-0.000152588,0.0115967,0.0595093,-0.965118,0.0202942,-0.00961304,3.27866,3.26004,-0.409046,-0.329584,-0.420859,120.073,88.879,-99.8455,207.643,-1058.39,0.0770316,-0.0764465,-0.129471,0.0050354,0.093689,0.00179291,0.0199127,-0.0690842,0.166969,0.280685,0.273666,0.358734,0.188446,-0.23838,0.299683,-0.177536,0.304718,0.017128,0.0440216,0.153542,0.128098,-0.0129318,-0.0670242,-0.118484,-0.0635529,0.238075,-0.118675,-0.24704,-0.02388,-0.180931,0.0520706,0.0764847,0.0031662,-0.0152588
669,1,-0.00747681,0.0167847,-0.000457764,0.0189209,0.17746,0.0135803,0.0102234,0.0262451,-0.0238037,0.00808716,0.0474548,-0.0909424,0.116119,-0.112152,-0.0448608,-0.0254822,2.66296,2.68143,0.00442505,0.0195312,-0.020752,-0.0431824,-0.00183105,0.010376,0.0177002,-0.952606,0.032959,0.0114441,3.26828,3.26248,-0.0490641,0.294987,1.00784,-60.5882,-89.1187,-42.76,207.643,-1058.39,0.0770316,-0.0902557,-0.0906372,0.00370026,0.102997,0.0180817,0.0304031,-0.106087,0.172691,0.275726,0.299568,0.338898,0.190773,-0.224991,0.300446,-0.161552,0.297813,0.0146484,0.0178909,0.115891,0.133362,-0.0366211,-0.0662231,-0.101585,-0.0567627,0.265236,-0.132713,-0.232773,-0.0291443,-0.191727,0.0369263,0.0522614,-0.0141525,-0.00915527
669,2,-0.0119019,0.0282288,0.00396729,0.0125122,0.275421,-0.022583,0.00915527,-0.0105286,-0.0187683,0.0453186,0.0350952,-0.092926,0.109406,-0.096283,-0.0758362,-0.0575256,2.64557,2.62802,0.0166321,0.0038147,-0.0357056,0.00854492,0.0267029,-0.00564575,0.00457764,-0.951843,0.0135803,-0.00106812,3.28323,3.2869,-0.408698,0.0264665,-0.0639309,75.0637,-53.3479,32.4355,207.643,-1058.39,0.0770316,-0.0912857,-0.125427,0.0313187,0.0794983,0.0475311,0.0179672,-0.0988388,0.181961,0.262718,0.239601,0.356102,0.191994,-0.221634,0.283356,-0.18959,0.283127,0.0390625,0.0642395,0.134277,0.0839996,-0.0139618,-0.067749,-0.102654,-0.0493622,0.255699,-0.130844,-0.260277,-0.043602,-0.171623,0.0351715,0.0471497,0.0118637,0.00183105
669,3,0.0193787,0.0117493,0.0164795,-0.00534058,-0.00427246,-0.0038147,0.00259399,-0.0611877,0.00839233,-0.00244141,0.0320435,-0.0921631,0.098877,-0.101013,-0.0544739,-0.0689697,2.63916,2.64664,0.0190735,0.0172424,-0.0387573,0.0209045,0.0106812,0.0172424,0.00701904,-0.910034,0.0205994,0.0337219,3.28812,3.2692,-0.676744,0.29424,0.651019,120.036,53.2,-137.491,207.643,-1058.39,0.0770316,-0.0600433,-0.129318,0.0283051,0.0682831,0.0760269,-0.00801086,-0.0833511,0.161324,0.229454,0.252151,0.345955,0.18055,-0.236359,0.294266,-0.201607,0.285339,0.0261688,0.0654984,0.110359,0.110397,-0.0147629,-0.0738907,-0.0976181,-0.0505066,0.263443,-0.139542,-0.230637,-0.0263214,-0.152893,0.0369644,0.0737762,0.0269318,0.00579834
669,4,0.0117493,0.0112915,0.0259399,0.00534058,-0.308075,0.0213623,0.00305176,-0.00518799,0.00244141,-0.017395,0.0242615,-0.108337,0.0888062,-0.109711,-0.0540161,-0.0526428,2.66251,2.69257,-0.0230408,0.0253296,-0.062561,-0.0201416,-0.00274658,0.00732422,-0.0209045,-0.848541,-0.00946045,0.00274658,3.15964,3.14438,-0.0506941,0.11476,-0.422058,-376.971,-53.6319,-80.1625,207.643,-1058.39,0.0770316,-0.0739288,-0.111656,0.00225067,0.0893784,0.0508118,0.00591278,-0.092392,0.165291,0.23365,0.235405,0.33577,0.184097,-0.240364,0.304451,-0.196381,0.28347,0.0101471,0.0405502,0.113564,0.113182,0.0104523,-0.0908279,-0.121651,-0.0540924,0.256882,-0.128021,-0.248413,-0.0308609,-0.172157,0.034256,0.0855255,0.0176239,-0.00305176
