Gait Cycle Parameters
100
Subject,Context,Name,Value,Units,Description
RSS04,Left,Cadence,112.676,steps/min,
RSS04,Left,Walking Speed,0.657772,m/s,
RSS04,Left,Stride Time,1.065,s,
RSS04,Left,Step Time,0.52,s,
RSS04,Left,Opposite Foot Off,14.2723,%,
RSS04,Left,Opposite Foot Contact,51.1737,%,
RSS04,Left,Foot Off,71.4554,%,
RSS04,Left,Single Support,0.393,s,
RSS04,Left,Double Support,0.368,s,
RSS04,Left,Stride Length,0.700528,m,
RSS04,Left,Step Length,0.360544,m,
RSS04,Left,Step Width,0.229207,m,
RSS04,Left,Limp Index,1.13244,,
RSS04,Right,Cadence,108.992,steps/min,
RSS04,Right,Walking Speed,0.644213,m/s,
RSS04,Right,Stride Time,1.101,s,
RSS04,Right,Step Time,0.545,s,
RSS04,Right,Opposite Foot Off,16.5304,%,
RSS04,Right,Opposite Foot Contact,50.4995,%,
RSS04,Right,Foot Off,64.3052,%,
RSS04,Right,Single Support,0.374,s,
RSS04,Right,Double Support,0.334,s,
RSS04,Right,Stride Length,0.709279,m,
RSS04,Right,Step Length,0.340101,m,
RSS04,Right,Step Width,0.229032,m,
RSS04,Right,Limp Index,0.973865,,

Devices
1000
,,FP2 - Force,,,FP2 - Moment,,,FP2 - CoP,,,FP1 - Force,,,FP1 - Moment,,,FP1 - CoP,,,FP4 - Force,,,FP4 - Moment,,,FP4 - CoP,,,A-Myon EMG - Voltage,,,,,,,,,,,,,,,,,,B-Myon EMG - Voltage,,,,,,,,,,,,FP3 - Force,,,FP3 - Moment,,,FP3 - CoP,,,EMG_A_Acc - Voltage,,,,,,,,,,,,,,,,EMG_B_Acc - Voltage,,,,,,,,,,,,,,,,Trigger - Electric Potential,
Frame,Sub Frame,Fx,Fy,Fz,Mx,My,Mz,Cx,Cy,Cz,Fx,Fy,Fz,Mx,My,Mz,Cx,Cy,Cz,Fx,Fy,Fz,Mx,My,Mz,Cx,Cy,Cz,EMG_A01,EMG_A02,EMG_A03,EMG_A04,EMG_A05,EMG_A06,EMG_A07,EMG_A08,EMG_A01_Accz,EMG_A02_Accz,EMG_A03_Accz,EMG_A04_Accz,EMG_A05_Accz,EMG_A06_Accz,EMG_A07_Accz,EMG_A08_Accz,FswA,FswB,EMG_B01,EMG_B02,EMG_B03,EMG_B04,EMG_B05,EMG_B06,EMG_B07,EMG_B08,EMG_B09,EMG_B10,EMG_B11,EMG_B12,Fx,Fy,Fz,Mx,My,Mz,Cx,Cy,Cz,1,2,3,4,5,6,7,8,9,10,11,12,13,14,15,16,1,2,3,4,5,6,7,8,9,10,11,12,13,14,15,16,1
,,N,N,N,N.mm,N.mm,N.mm,mm,mm,mm,N,N,N,N.mm,N.mm,N.mm,mm,mm,mm,N,N,N,N.mm,N.mm,N.mm,mm,mm,mm,V,V,V,V,V,V,V,V,V,V,V,V,V,V,V,V,V,V,V,V,V,V,V,V,V,V,V,V,V,V,N,N,N,N.mm,N.mm,N.mm,mm,mm,mm,V,V,V,V,V,V,V,V,V,V,V,V,V,V,V,V,V,V,V,V,V,V,V,V,V,V,V,V,V,V,V,V,V
653,0,0.377494,-0.314005,-0.852719,-101.674,-15.7297,-59.2937,202.9,-304.365,-0.0795827,-0.0130488,-0.0559204,0.240362,-190.437,74.6835,-6.27527,198.84,300.407,0.0558755,-0.288108,-0.119844,-1.83765,217.886,101.664,-100.08,-144.324,-423.966,-0.0589059,-0.0128174,0.0205994,-0.0125122,-0.0151062,-0.0302124,0.0537109,0.0236511,0.063324,-0.0209045,0.0263977,-0.052948,-0.0209045,0.0112915,0.000305176,-0.0741577,-0.0457764,2.65991,2.63687,0.010376,0.00579834,0.0244141,0.0340271,0.00976562,0.0196838,0.0141907,-0.0564575,-0.0144958,0.027771,3.23776,3.26736,-0.0498453,0.027163,0.293205,-150.908,53.4476,32.5105,207.643,-1058.39,0.0770316,-0.0533295,-0.0962448,0.0110245,-0.0384521,0.0457001,0.0174713,-0.0844955,0.0025177,0.213737,0.191727,0.196533,0.228195,-0.160637,0.193367,-0.175705,0.19886,-0.0662231,0.0418091,0.194206,0.0272751,-0.0894547,-0.21389,0.0743484,0.118484,0.233002,-0.271454,-0.306396,-0.164948,-0.260468,-0.0512695,0.257492,-0.182724,-0.00671387
653,1,0.464627,-0.136627,-0.498555,-145.953,-15.891,70.8462,202.9,-304.365,-0.0795827,-0.101931,0.298243,-1.17365,337.485,77.4758,-61.6842,264.872,12.8554,0.166866,0.241604,-0.117711,0.645796,-47.7697,-38.9732,-7.26431,-199.669,-305.422,-0.130892,0.0320435,0.00946045,0.0158691,0.000305176,-0.0213623,0.109253,0.00808716,0.0765991,-0.042572,0.0143433,-0.096283,-0.0308228,0.0202942,-0.00427246,-0.0726318,-0.0325012,2.63214,2.6535,-0.00564575,-0.00839233,0.0126648,0.0218201,-0.0239563,0.0262451,0.0219727,0.00518799,0.0201416,-0.0151062,3.26904,3.2692,0.487827,-0.061591,0.292735,120.284,17.9523,69.9656,207.643,-1058.39,0.0770316,-0.0470352,-0.0704956,0.0186157,-0.0374222,0.0356293,0.0159454,-0.0993729,0.0117111,0.207825,0.174103,0.215416,0.204582,-0.168266,0.218277,-0.182076,0.225372,-0.0733566,0.0279236,0.16346,0.00347137,-0.098114,-0.226364,0.0721741,0.131493,0.20546,-0.274658,-0.304489,-0.16201,-0.226021,-0.0434494,0.283432,-0.17765,0.0143433
653,2,-0.155682,0.0367806,-0.853683,-13.4866,-50.5264,52.459,202.9,-304.365,-0.0795827,-0.101922,0.209669,-0.466692,29.9243,5.75145,-61.8689,198.84,300.407,0.0558755,0.063438,0.324099,0.645545,-3.1508,-143.886,-62.9604,-199.669,-305.422,-0.130892,0.0109863,-0.00961304,-0.00854492,-0.0445557,-0.0506592,0.0727844,0.0175476,0.0827026,-0.0157166,-0.00350952,-0.0720215,-0.0273132,0.00900269,0.0154114,-0.0640869,-0.0570679,2.65686,2.66968,-0.00534058,0.01297,-0.0216675,0.0210571,-0.0408936,0.0364685,-0.00335693,-0.0413513,-0.0138855,-0.0108337,3.26981,3.27011,0.129458,-0.41708,0.293778,-105.696,53.4893,51.3119,207.643,-1058.39,0.0770316,-0.0435257,-0.0931931,-0.0109482,-0.0333023,0.0130463,0.0235748,-0.0885773,0.0231934,0.206528,0.201187,0.209236,0.220146,-0.163231,0.19722,-0.186844,0.219345,-0.052948,0.0256729,0.151825,0.0323486,-0.0892258,-0.217628,0.0676346,0.110207,0.211563,-0.221176,-0.301743,-0.156097,-0.236626,-0.0444031,0.278549,-0.183144,0.0192261
653,3,-0.245064,-0.316303,0.916968,117.717,161.954,33.9485,202.9,-304.365,-0.0795827,-0.0114108,-0.233652,-0.819995,-101.614,-65.0597,-154.862,198.84,300.407,0.0558755,0.240952,0.0593051,1.00047,306.85,-38.1043,-44.2234,-199.669,-305.422,-0.130892,0.0106812,-0.00106812,0.00717163,-0.0567627,-0.0497437,0.0595093,0.0306702,0.0352478,-0.0167847,0.0288391,-0.0769043,-0.0396729,-0.017395,-0.0337219,-0.0663757,-0.0462341,2.65518,2.65411,-0.00717163,-0.00549316,-0.0302124,-0.00106812,-0.0390625,-0.00106812,-0.0138855,-0.0642395,0.0189209,0.00808716,3.25119,3.26828,-0.0494463,0.116648,0.650602,165.473,-88.9103,51.247,207.643,-1058.39,0.0770316,-0.0361633,-0.102348,-0.00728607,-0.00514984,0.0503159,0.00793457,-0.107384,0.0163651,0.204964,0.172272,0.211067,0.186615,-0.18013,0.193901,-0.180702,0.219688,-0.0517654,0.00141144,0.147629,0.0112534,-0.0470734,-0.218201,0.0785446,0.137711,0.209389,-0.259361,-0.314331,-0.154648,-0.232925,-0.0234985,0.273132,-0.197258,-0.0253296
653,4,-0.154778,-0.13997,-0.853595,338.466,127.733,-58.711,202.9,-304.365,-0.0795827,-0.101682,0.121011,-0.113204,-12.3291,-309.9,-154.746,198.84,300.407,0.0558755,0.0640689,0.412084,-0.773413,85.2265,-38.6549,-44.3561,-199.669,-305.422,-0.130892,-0.00366211,0.00991821,0.0169373,-0.0012207,-0.0164795,-0.0195312,0.00732422,0.00656128,-0.0227356,-0.00411987,-0.052948,-0.0267029,0.00991821,-0.00534058,-0.0621033,-0.0552368,2.66937,2.65305,0.0177002,0.00320435,-0.0180054,0.0120544,-0.0210571,-0.0216675,-0.00259399,-0.0408936,-0.0370789,-0.00808716,3.1572,3.15445,-0.0502106,-0.240032,-0.0638791,-105.741,-53.4482,-5.06208,207.643,-1058.39,0.0770316,-0.0255585,-0.103722,0.0101089,-0.0281906,0.0242615,0.0146866,-0.0761032,0.00038147,0.212631,0.197258,0.194168,0.221863,-0.153503,0.19783,-0.18425,0.183182,-0.0780869,0.0422668,0.186844,0.00556946,-0.050087,-0.189209,0.0395966,0.149269,0.251465,-0.274429,-0.275421,-0.144157,-0.19516,-0.0198746,0.298309,-0.115891,0.0195312
653,5,-0.0692223,0.0379298,0.562932,118.411,20.7543,52.6197,202.9,-304.365,-0.0795827,0.162787,0.0335886,-0.466477,-13.6815,-64.5746,-80.4656,198.84,300.407,0.0558755,-0.023132,-0.295503,-0.0637685,128.931,206.473,-25.8245,-199.669,-305.422,-0.130892,0.0131226,-0.00595093,0.0161743,0.0344849,0.00671387,-0.103912,0.0123596,-0.0289917,0.0100708,-0.00183105,-0.0814819,-0.0566101,0.0241089,0.00991821,-0.0759888,-0.0526428,2.67593,2.6532,0.018158,0.00564575,-0.0169373,0.0144958,0.000762939,-0.00167847,-0.00610352,-0.0297546,0.010376,0.0198364,3.0426,3.05069,-0.0519082,-0.0648377,-1.4944,-15.3827,-53.4644,-24.0212,171.899,-1048.12,0.100536,-0.0415421,-0.0979614,-0.0127792,-0.0362778,0.00644684,0.0390244,-0.0738907,0.00499725,0.19722,0.177689,0.208054,0.226212,-0.164108,0.174599,-0.171776,0.205917,-0.0663757,0.0380707,0.218582,0.0387192,-0.054512,-0.206337,0.0374985,0.130501,0.243721,-0.229187,-0.273857,-0.150185,-0.178986,-0.0483704,0.274582,-0.112915,0.0149536
653,6,-0.247396,0.0373728,1.27091,163.454,-155.55,15.5717,202.9,-304.365,-0.0795827,-0.278006,0.297392,-0.820295,204.607,251.986,-98.9819,198.84,300.407,0.0558755,0.241384,-0.0292612,0.645767,-47.5735,-108.989,-44.4127,-199.669,-305.422,-0.130892,0.00396729,0.0106812,0.0119019,0.0146484,-0.0144958,-0.129089,-0.00823975,-0.0733948,-0.038147,0.0169373,-0.091095,-0.0578308,0.00808716,-0.017395,-0.0723267,-0.0192261,2.6561,2.66449,-0.00686646,-0.0146484,-0.020752,0.0120544,-0.0134277,0.0228882,0.00442505,-0.0384521,0.0108337,-0.00167847,2.96478,2.95059,-0.317756,-0.415906,1.00941,-331.678,-17.8449,13.9922,207.643,-1058.39,0.0770316,-0.0387573,-0.0986099,-0.0120544,-0.0268555,0.0159836,0.0208282,-0.0873947,-0.00167847,0.196838,0.164299,0.206909,0.207825,-0.179825,0.205574,-0.180054,0.231171,-0.0421143,0.0496292,0.183563,0.0374985,-0.0624847,-0.185966,0.049324,0.145569,0.249825,-0.227165,-0.271416,-0.144997,-0.175285,-0.0474167,0.253143,-0.131073,0.00366211
653,7,-0.246567,-0.227579,1.62517,-12.9326,-121.195,-77.7108,202.9,-304.365,-0.0795827,0.423979,0.301629,1.30097,-13.3978,-99.6536,-229.135,198.84,300.407,0.0558755,0.0649409,0.146618,-1.12806,-47.7252,-38.9975,-81.6072,-234.216,-263.071,-0.165467,0.00686646,0.0134277,0.0384521,-0.00762939,-0.0119019,-0.0772095,0.00595093,-0.0593567,-0.0253296,-0.0119019,-0.0579834,-0.0370789,0.010376,0.0234985,-0.0596619,-0.0502014,2.65732,2.63687,0.00335693,0.0263977,0.0138855,0.00335693,0.00396729,0.0175476,0.00549316,-0.0642395,0.00442505,-0.00274658,2.81555,2.84149,0.217751,-0.0635289,-0.779611,120.183,89.0449,-5.57562,207.643,-1058.39,0.0770316,-0.0192642,-0.0899887,-0.0173569,-0.0300598,0.0237274,0.0164795,-0.096817,0.000457764,0.202217,0.168839,0.215797,0.227966,-0.130043,0.19989,-0.18425,0.208626,-0.0379944,0.0395203,0.22747,0.0249863,-0.0542068,-0.212936,0.0455856,0.138245,0.238228,-0.241928,-0.300255,-0.153122,-0.155716,-0.0533676,0.291786,-0.128975,-0.00427246
653,8,-0.0683929,-0.227022,0.917187,-57.3923,-86.0541,52.4113,202.9,-304.365,-0.0795827,-0.453378,0.207717,-0.820389,-189.967,4.56064,-154.936,198.84,300.407,0.0558755,-0.288931,-0.472714,1.00033,40.5652,101.235,-63.0144,-199.669,-305.422,-0.130892,0.00717163,0.000457764,0.0285339,0.0177002,0.0205994,-0.014801,0.00671387,-0.0489807,-0.0193787,-0.00595093,-0.0752258,-0.0494385,0.0157166,0.00274658,-0.0712585,-0.0430298,2.67105,2.64297,0.00305176,0.00976562,0.0546265,0.0178528,-0.00488281,0.0357056,-0.00595093,-0.0964355,0.00930786,-0.00839233,2.7388,2.76733,-0.0510594,-0.152435,-0.779142,165.336,53.3744,-43.2735,207.643,-1058.39,0.0770316,-0.0530243,-0.0626755,0.00423431,0.00537872,0.00221252,0.0343704,-0.0871658,0.00148773,0.213203,0.158539,0.221214,0.199661,-0.179253,0.18158,-0.172195,0.201836,-0.0545883,0.0458908,0.20649,0.04776,-0.0325012,-0.183792,0.0458527,0.136185,0.226479,-0.25631,-0.282669,-0.153618,-0.175934,-0.0284576,0.288162,-0.0986862,0.0216675
653,9,0.0186655,-0.137846,1.62552,74.7132,-50.0848,33.989,202.9,-304.365,-0.0795827,0.252115,-0.143593,-1.17331,-101.29,-135.13,-80.5064,83.7053,386.766,-0.039899,-0.289604,-0.0306972,0.290717,-136.234,-109.203,-25.8801,-199.669,-305.422,-0.130892,0.000610352,0.00946045,0.0341797,-0.00671387,0.0247192,-0.0315857,0.00747681,-0.0263977,-0.0205994,0.00549316,-0.0753784,-0.0436401,0.0157166,0.00152588,-0.0563049,-0.0541687,2.65472,2.64542,0.010376,0.0436401,0.0102234,0.00228882,0.0285339,0.00946045,0.00976562,-0.0997925,-0.022583,-0.00778198,-2.56531,-2.75558,0.666179,0.114895,-0.422892,29.8244,89.0611,13.3835,207.643,-1058.39,0.0770316,-0.0267792,-0.0844955,0.00179291,0.00354767,0.00888824,0.0701523,-0.0734329,0.00862122,0.226822,0.174866,0.200615,0.215416,-0.162354,0.188484,-0.168304,0.213547,-0.0554276,0.0556183,0.17067,0.0327682,-0.0712204,-0.197525,0.00900269,0.136108,0.227966,-0.244141,-0.28141,-0.172462,-0.20668,-0.0474167,0.275345,-0.109329,-0.000610352
654,0,-0.334151,-0.316581,1.27096,162.302,91.5294,-58.9547,202.9,-304.365,-0.0795827,-0.191722,0.475591,0.24012,-146.908,180.014,-154.949,198.84,300.407,0.0558755,-0.023132,-0.295503,-0.0637685,-136.167,-109.24,-137.394,-199.669,-305.422,-0.130892,-0.00946045,0.0357056,0.0442505,-0.00183105,-0.00259399,-0.0244141,0.0204468,-0.0410461,-0.0260925,-0.00305176,-0.0740051,-0.0387573,-0.0050354,-0.0123596,-0.057373,-0.0474548,2.64801,2.65137,0.00930786,0.0286865,0.00488281,0.000915527,-0.00579834,0.0218201,0.0157166,-0.143738,-0.00106812,-0.0012207,-3.16696,-3.16559,0.128957,0.0265676,-0.0645566,74.9305,-160.418,-99.3544,207.643,-1058.39,0.0770316,-0.022049,-0.0999832,-0.0109482,0.0257111,0.0222015,0.0572205,-0.0920868,-0.00823975,0.204582,0.1791,0.196228,0.200233,-0.174789,0.187111,-0.198326,0.211334,-0.0437164,0.0406265,0.192757,0.046463,-0.0621796,-0.206566,0.0236511,0.154877,0.24086,-0.242996,-0.268631,-0.126953,-0.17662,-0.0495529,0.268135,-0.13588,0.00488281
654,1,-0.0687707,-0.0504455,0.562977,-13.8623,55.3257,-59.1983,202.9,-304.365,-0.0795827,-0.0116845,0.209304,-4.0013,-234.998,179.586,12.2555,243.721,359.136,0.0714491,-0.202176,0.500106,-0.0641363,-3.59675,31.1281,-44.4322,-199.669,-305.422,-0.130892,0.00106812,0.0265503,0.00701904,0.0363159,0.0349426,-0.0553894,0.000305176,-0.0588989,-0.0375366,0.00808716,-0.0784302,-0.0463867,0.0236511,0.00701904,-0.0466919,-0.0544739,2.64954,2.65747,0.0146484,-0.00457764,0.0543213,-0.0050354,0.00564575,-0.0437927,0.000152588,-0.125275,0.0209045,0.0152588,-3.16711,-3.17047,-0.137858,0.385084,1.7229,29.8263,-267.165,-42.5519,207.643,-1058.39,0.0770316,-0.0267792,-0.0801849,0.0247574,0.00827789,0.0107574,0.0370407,-0.086937,0.0161362,0.212708,0.181007,0.225868,0.216331,-0.180511,0.200348,-0.175781,0.188408,-0.0564194,0.0489044,0.16407,0.0886917,-0.100441,-0.211296,0.0306702,0.165329,0.262794,-0.254936,-0.268135,-0.111809,-0.139618,-0.0214767,0.257301,-0.107689,0.0088501
654,2,-0.154475,-0.404748,-0.14522,-101.686,-50.9679,70.9292,202.9,-304.365,-0.0795827,-0.0116593,-0.0564199,-1.88044,118.699,-133.974,-136.117,127.61,237.332,0.0240632,-0.2,-0.119391,-1.12813,-3.24891,-108.879,-44.3862,-296.176,-302.519,-0.189701,0.0120544,0.0289917,0.038147,0.0604248,0.0489807,-0.0514221,0.0224304,-0.070343,-0.03479,0.0195312,-0.0965881,-0.0384521,0.0271606,0.00762939,-0.070343,-0.0444031,2.64542,2.67929,0.00228882,0.0219727,0.0595093,0.0418091,-0.042572,0.0149536,-0.00534058,-0.162048,0.0302124,-0.0163269,-3.16254,-3.17841,-0.317459,0.206711,1.36586,-60.5478,160.303,32.2174,207.643,-1058.39,0.0770316,-0.0270844,-0.0860977,0.00465393,0.00488281,0.0243378,0.0563431,-0.0979233,0.0186539,0.193405,0.180855,0.210648,0.225601,-0.152168,0.163498,-0.192261,0.195465,-0.069809,0.0597763,0.158234,0.0626373,-0.0728989,-0.168457,0.0439453,0.173454,0.240059,-0.251694,-0.236893,-0.118942,-0.158386,-0.018158,0.25631,-0.0873566,0.0192261
654,3,-0.157258,0.037303,0.20868,30.5296,-15.0353,-21.8963,202.9,-304.365,-0.0795827,-0.18632,-0.323494,-1.52702,-145.455,-100.324,-99.1283,133.154,395.706,-0.00960686,0.2403,0.236321,1.35514,-47.7029,-39.0097,-118.779,-199.669,-305.422,-0.130892,-0.00259399,0.0172424,0.0204468,0.00305176,0.0402832,-0.0296021,-0.00427246,-0.058136,-0.0395203,0.0341797,-0.0494385,-0.0184631,0.0163269,0.0184631,-0.0700378,-0.0483704,2.66174,2.68936,0.00457764,0.0210571,0.0648499,0.0540161,-0.00961304,0.0144958,-0.0151062,-0.19577,0.00701904,-0.0189209,-3.18329,-3.19107,-0.0502275,-0.151177,-0.0640354,-150.922,124.673,32.3852,207.643,-1058.39,0.0770316,-0.0402069,-0.112267,-0.00823975,0.0126266,0.0263596,0.0588226,-0.0947571,0.0153732,0.226669,0.181465,0.22789,0.221825,-0.150337,0.183792,-0.187187,0.174599,-0.0543594,0.0527191,0.144424,0.0485992,-0.072937,-0.186234,0.0382614,0.170288,0.240288,-0.24807,-0.259209,-0.114899,-0.149612,-0.0126266,0.270157,-0.0725937,-0.00671387
654,4,-0.154778,-0.13997,-0.853595,31.1132,-156.199,71.178,202.9,-304.365,-0.0795827,0.0769744,-0.233351,-1.52687,-145.73,-30.2714,-247.823,179.053,395.95,0.0204087,-0.290483,0.323103,0.2906,84.5197,241.364,-25.8625,-199.669,-305.422,-0.130892,0.0132751,0.0192261,-0.00152588,0.0286865,0.0384521,0.0144958,-0.00656128,-0.0715637,-0.0314331,0.00244141,-0.0636292,-0.0427246,0.00366211,0.000762939,-0.0639343,-0.0535583,2.68417,2.66052,0.0267029,0.0163269,0.0215149,0.0604248,0.0292969,0.0134277,-0.0140381,-0.22583,0.0154114,-0.000457764,-3.14987,-3.18344,-0.139853,-0.0623381,-0.0640874,300.83,231.397,-81.4525,207.643,-1058.39,0.0770316,-0.026474,-0.0904083,0.0265503,0.00705719,0.0279999,0.059967,-0.0906754,0.00732422,0.204544,0.168953,0.204506,0.212097,-0.15358,0.18116,-0.194473,0.207138,-0.0655746,0.0550842,0.156746,0.0630569,-0.0777054,-0.230904,0.0350571,0.169067,0.234833,-0.285797,-0.247726,-0.1437,-0.161247,0.0104141,0.245743,-0.0760269,0.00823975
654,5,0.110455,-0.0502367,-0.853245,119.063,-85.1893,-21.7304,202.9,-304.365,-0.0795827,-0.454999,0.208299,1.65388,-145.616,-65.2891,-136.306,198.84,300.407,0.0558755,-0.0237842,-0.118487,0.290905,85.0303,31.3605,-7.20772,-199.669,-305.422,-0.130892,0.0195312,0.0088501,0.0151062,0.00106812,0.0247192,0.0975037,0.0161743,-0.0733948,-0.0038147,0.0468445,-0.0778198,-0.0320435,0.00961304,0.0180054,-0.0575256,-0.0424194,2.63153,2.62924,0.0106812,0.0120544,0.0134277,0.0292969,0.000305176,0.0283813,0.00961304,-0.205383,0.0314331,0.0125122,-3.0719,-3.07358,-0.765088,0.207255,1.72394,165.249,53.2417,-118.689,207.643,-1058.39,0.0770316,-0.0263977,-0.100327,0.0133896,-0.0211716,0.00900269,0.0735092,-0.0999069,0.0476837,0.21843,0.171242,0.210381,0.222664,-0.17067,0.195007,-0.181694,0.21389,-0.0653839,0.0690842,0.17807,0.0701904,-0.0733948,-0.174561,0.0626755,0.166893,0.225754,-0.270844,-0.255051,-0.124893,-0.13649,-0.00205994,0.241318,-0.086441,-0.000305176
654,6,-0.0676456,0.0374074,-0.499431,-145.94,19.3473,-59.3766,202.9,-304.365,-0.0795827,0.0741616,0.121946,-0.113089,-57.6111,-64.8303,-173.418,198.84,300.407,0.0558755,0.329018,0.58976,-0.41858,129.781,-108.579,-137.235,-199.669,-305.422,-0.130892,0.0271606,0.00808716,-0.00259399,0.0253296,-0.0180054,0.132751,0.0361633,-0.0559998,-0.0320435,-0.00106812,-0.0889587,-0.0437927,0.0317383,-0.000152588,-0.0588989,-0.0534058,2.6532,2.65076,0.00198364,0.0393677,-0.018158,0.0109863,0.040741,0.014801,0.0146484,-0.219421,0.0135803,-0.00411987,-3.00323,-3.022,-0.408731,0.204177,-0.0642436,120.242,124.757,50.9237,207.643,-1058.39,0.0770316,-0.0301361,-0.0902557,-0.00225067,-0.00797272,0.0145721,0.0619507,-0.103951,0.00473022,0.218277,0.158195,0.217133,0.206375,-0.1688,0.194016,-0.176544,0.215073,-0.069046,0.04673,0.178185,0.0882339,-0.0843048,-0.185776,0.0104904,0.150642,0.226631,-0.271187,-0.270805,-0.128174,-0.169754,-0.0144577,0.269585,-0.0814438,0.00610352
654,7,-0.422869,0.124146,-0.145878,162.843,-14.3776,-58.9018,202.9,-304.365,-0.0795827,-0.276814,-0.0573222,0.24019,73.7651,41.016,-117.603,198.84,300.407,0.0558755,0.242887,-0.206742,-1.12784,-92.1479,-4.09991,-63.0595,-203.285,-223.701,-0.159811,0.0154114,0.0245667,-0.00213623,-0.0224304,-0.0224304,0.0888062,-0.000915527,-0.032959,-0.0180054,0.0218201,-0.0765991,-0.0431824,0.00411987,-0.0152588,-0.045929,-0.0369263,2.65411,2.64832,-0.000457764,0.030365,-0.0415039,0.0247192,0.127411,0.0447083,0.0106812,-0.158844,0.00976562,-0.017395,-2.94403,-2.94876,0.0414449,-0.0591588,1.72347,-15.2308,-160.103,89.2906,207.643,-1058.39,0.0770316,-0.0370407,-0.110092,0.00988007,-0.00297546,0.0250244,0.0321198,-0.107498,0.0163651,0.1968,0.173721,0.203476,0.218315,-0.172844,0.196724,-0.183487,0.217133,-0.0667572,0.048027,0.159149,0.076828,-0.0851822,-0.209236,0.0196838,0.176582,0.230331,-0.261421,-0.232277,-0.149612,-0.172844,-0.00789642,0.251999,-0.0880814,0.022583
654,8,-0.246797,0.1254,0.562626,-145.426,-86.5505,-40.723,202.9,-304.365,-0.0795827,0.250005,0.12288,-0.112974,117.521,76.3113,-43.2433,198.84,300.407,0.0558755,-0.290037,0.0578691,0.64542,-137.137,240.832,29.762,-199.669,-305.422,-0.130892,0.0119019,0.0152588,-0.0292969,-0.030365,0.000457764,0.100555,0.00747681,0.0404358,-0.018158,0.0131226,-0.0810242,-0.0436401,0.0305176,0.000305176,-0.0553894,-0.0448608,2.66556,2.66922,0.0192261,0.010376,-0.00473022,0.0151062,-0.000305176,0.0358582,-0.0276184,-0.159149,-0.0216675,0.00701904,-2.89612,-2.8801,0.308243,-0.32882,-0.0641398,-195.925,-53.1666,164.729,207.643,-1058.39,0.0770316,-0.0309372,-0.0830078,-0.000686646,-0.00801086,0.0118256,0.0437164,-0.0912476,0.0396347,0.204124,0.166283,0.227356,0.218201,-0.155067,0.206528,-0.199051,0.205956,-0.0335312,0.0522232,0.152969,0.0913239,-0.0977325,-0.196571,0.0367737,0.137596,0.223732,-0.236588,-0.205917,-0.124893,-0.135002,0.019455,0.289268,-0.0302124,-0.00762939
654,9,-0.0680973,0.125783,-0.499475,-57.3243,-50.8341,-115.013,202.9,-304.365,-0.0795827,0.161612,0.211154,-0.113053,-57.773,-29.7951,-210.596,198.84,300.407,0.0558755,0.064076,0.32375,-0.418652,-91.6595,-214.092,-7.2333,-199.669,-305.422,-0.130892,0.0265503,-0.000457764,-0.0167847,-0.0305176,0.00900269,0.121918,-0.018158,0.078125,-0.0291443,0.00274658,-0.0810242,-0.0216675,0.00991821,-0.0183105,-0.0869751,-0.0663757,2.67136,2.66739,0.0154114,0.0120544,0.00778198,0.0704956,-0.0260925,0.0231934,0.000915527,-0.134888,0.019989,-0.00228882,3.0838,3.10272,0.218049,0.559088,-0.423152,-60.5224,-89.0192,13.802,207.643,-1058.39,0.0770316,-0.0418854,-0.109825,-0.0126648,0.00595093,0.00587463,0.0528336,-0.0919342,-0.00205994,0.188179,0.165672,0.2388,0.202637,-0.168343,0.153961,-0.198517,0.208206,-0.0213623,0.0543594,0.160789,0.137558,-0.0922775,-0.192757,0.0707626,0.176849,0.235519,-0.211639,-0.200348,-0.135498,-0.135574,-0.0305557,0.299911,-0.0323486,-0.00732422
655,0,0.196388,-0.0489133,0.917492,-14.3611,125.976,33.7702,202.9,-304.365,-0.0795827,0.335809,0.478394,0.240465,-58.4047,75.363,-99.1126,198.84,300.407,0.0558755,-0.200447,0.145842,-1.48295,-3.77067,101.131,-44.4553,-131.455,-302.861,-0.0908342,-0.00549316,0.00534058,-0.0213623,-0.0395203,0.0196838,0.093689,0.0469971,0.0431824,0.00274658,0.00488281,-0.0918579,-0.0402832,-0.0117493,-0.0242615,-0.0640869,-0.0569153,2.65747,2.61597,0.00961304,0.0445557,-0.00640869,0.0611877,-0.0442505,0.01297,-0.0250244,-0.121002,0.0239563,0.0178528,3.29315,3.30109,-0.0476981,-0.325113,2.0816,346.061,17.7294,-81.1292,207.643,-1058.39,0.0770316,-0.041275,-0.0940704,0.0160217,-0.0148773,0.0405121,0.0606918,-0.0947952,0.0274658,0.197601,0.148239,0.203743,0.196724,-0.177002,0.181847,-0.194778,0.199623,-0.0659561,0.0263214,0.159645,0.109634,-0.0933075,-0.180092,0.0527191,0.150223,0.22522,-0.23365,-0.216522,-0.129814,-0.14164,0.00385284,0.277977,-0.0649643,0.00335693
655,1,0.109403,-0.0498884,-0.145003,-189.818,-16.1895,-78.025,202.9,-304.365,-0.0795827,-0.274473,-0.323878,-1.17361,-101.986,5.02821,-154.879,203.155,387.401,0.0382137,0.331414,-0.118188,-1.48254,41.0223,-73.785,-100.128,-249.408,-333.048,-0.151669,0.00152588,-0.0114441,-0.00289917,-0.0314331,-0.0344849,0.0544739,0.0357056,0.09552,-0.0318909,0.000152588,-0.106812,-0.0405884,0.00961304,0.00106812,-0.0769043,-0.0440979,2.66769,2.66479,0.0125122,0.00610352,-0.0437927,0.0810242,-0.0340271,-0.0538635,-0.0050354,-0.152283,0.00900269,0.0160217,3.26874,3.2666,0.128873,0.470844,-0.0653382,-60.573,-53.4729,-23.9687,207.643,-1058.39,0.0770316,-0.0296021,-0.101929,0.00385284,0.00659943,0.0104141,0.0497437,-0.111732,0.014534,0.207443,0.158577,0.202446,0.221252,-0.178947,0.217705,-0.169601,0.235023,-0.0253296,0.0583649,0.14019,0.128059,-0.0961685,-0.198135,0.0364685,0.175552,0.217285,-0.262947,-0.194511,-0.141487,-0.116196,-0.0226974,0.26226,-0.0572968,-0.00549316
655,2,0.107975,0.127036,0.20903,-189.859,-51.4186,70.7985,202.9,-304.365,-0.0795827,0.514226,0.21269,-1.52669,74.336,-64.1201,-136.162,156.869,251.784,0.0398292,-0.0229476,0.0577162,-1.83755,40.8573,-38.7407,29.9602,-220.758,-327.667,-0.136253,0.0242615,-0.00274658,-0.0115967,-0.0170898,-0.0750732,0.0262451,0.00167847,0.116577,-0.0183105,-0.00213623,-0.0791931,-0.0456238,0.0125122,-0.00518799,-0.0636292,-0.065918,2.63657,2.64175,0.0120544,0.00732422,0.000610352,0.0292969,-0.00915527,-0.0320435,-0.0154114,-0.0921631,0.0227356,0.0167847,3.28156,3.27805,-0.407051,0.117838,1.36613,-151.004,-17.9436,-61.6341,207.643,-1058.39,0.0770316,-0.0468445,-0.0969696,-0.0107956,0.0110245,0.012207,0.0421524,-0.0830078,0.00869751,0.194588,0.160522,0.205803,0.19207,-0.140114,0.159988,-0.187149,0.197067,-0.0153732,0.0583649,0.128555,0.107498,-0.134354,-0.206451,0.0278854,0.174942,0.211983,-0.237541,-0.189095,-0.110893,-0.148582,-0.0102997,0.255661,-0.055542,-0.00518799
655,3,0.19413,0.392963,0.917271,-58.0036,55.1186,-22.0622,202.9,-304.365,-0.0795827,-0.28105,0.652772,0.946954,73.4657,111.078,-229.128,198.84,300.407,0.0558755,0.0655859,0.0579362,-1.83749,-2.80296,-283.893,-62.9144,-354.156,-303.876,-0.224018,0.00640869,-0.0180054,0.00259399,-0.000915527,-0.115662,0.0221252,-0.00534058,0.143127,-0.035553,0.0288391,-0.0704956,-0.0283813,0.0187683,0.0352478,-0.0669861,-0.0262451,2.66037,2.65198,-0.0152588,0.0369263,0.0205994,0.0187683,0.00839233,-0.00564575,-0.01297,-0.115662,-0.00747681,-0.0120544,3.24982,3.26065,-0.0494463,0.116648,0.650602,-15.3388,-53.398,13.6867,207.643,-1058.39,0.0770316,-0.0461578,-0.0767517,0.000152588,-0.00038147,0.02491,0.0295639,-0.104942,0.030098,0.201073,0.177231,0.226555,0.198631,-0.149269,0.177536,-0.171356,0.200081,-0.00743866,0.0547409,0.143623,0.130692,-0.103569,-0.190887,0.00896454,0.153313,0.243034,-0.211296,-0.187569,-0.120392,-0.139847,-0.0217438,0.271263,-0.0719452,-0.00518799
655,4,-0.248374,0.125922,1.62499,-57.8083,-15.4311,89.5776,202.9,-304.365,-0.0795827,-0.629454,0.206865,-0.467037,30.1836,-29.3188,-173.369,198.84,300.407,0.0558755,-0.377918,-0.119367,0.290693,129.529,-38.5326,-7.15816,-199.669,-305.422,-0.130892,-0.0183105,0.0210571,0.000305176,0.0431824,-0.0616455,0.0296021,-0.00473022,0.0999451,-0.0456238,-0.000152588,-0.0904846,-0.0331116,0.0233459,-0.0012207,-0.0737,-0.0561523,2.63321,2.66129,0.00808716,-0.00915527,0.0187683,0.020752,-0.0117493,0.00137329,0.0387573,-0.137787,-0.0276184,-0.00595093,3.16269,3.18695,-0.0510425,-0.24129,-0.778985,74.9522,302.712,-5.89896,207.643,-1058.39,0.0770316,-0.0270081,-0.0973892,-0.00598907,-0.00087738,0.0273132,0.0422668,-0.116806,0.0284958,0.191231,0.16407,0.224228,0.187607,-0.132103,0.192986,-0.183945,0.199165,-0.0322342,0.0404358,0.155487,0.128326,-0.0821686,-0.196953,0.016098,0.164528,0.244484,-0.216446,-0.189629,-0.11982,-0.133209,-0.023613,0.260048,-0.0795746,0.00213623
655,5,0.463124,-0.0479036,0.209643,-145.995,19.3656,-22.1752,202.9,-304.365,-0.0795827,-0.277534,0.208651,-0.820274,-365.929,3.62551,-155.051,198.84,300.407,0.0558755,-0.113197,0.235093,0.290735,-48.1934,136.029,-25.9076,-199.669,-305.422,-0.130892,-0.0190735,0.00289917,-0.00534058,0.0448608,0.0718689,0.00762939,-0.0050354,0.12558,-0.0205994,0.0161743,-0.0862122,-0.0534058,0.0131226,-0.0186157,-0.0709534,-0.0447083,2.64389,2.67044,0.022583,0.017395,0.00320435,0.0108337,-0.0491333,0.0105286,0.00793457,-0.109253,0.0125122,-0.00549316,3.04718,3.07343,-0.229828,-0.32955,-0.421068,-15.3675,-17.8186,-5.22991,207.643,-1058.39,0.0770316,-0.042305,-0.0978088,0.0101852,0.00720978,-0.00476837,0.0646591,-0.105705,0.0363922,0.197792,0.166817,0.220222,0.189362,-0.17498,0.194664,-0.193291,0.208549,-0.020752,0.0591278,0.114975,0.107079,-0.132217,-0.188446,0.0408554,0.151215,0.237579,-0.22068,-0.168381,-0.0910568,-0.155754,0.0395966,0.254364,-0.0857925,0.0106812
655,6,-0.244769,0.036502,-0.499693,-58.0716,19.8987,145.362,202.9,-304.365,-0.0795827,-0.187006,-0.411819,0.240332,-188.538,-275.769,-61.9457,198.84,300.407,0.0558755,-0.11146,-0.207505,-0.773315,-180.668,-74.2991,11.2533,-199.669,-305.422,-0.130892,0.00167847,0.00320435,0.000762939,0.0230408,0.0967407,0.00686646,0.0187683,0.102234,-0.00320435,0.0126648,-0.0724792,-0.0177002,0.0280762,-0.00717163,-0.0447083,-0.045929,2.64694,2.63336,-0.00778198,0.0169373,-0.000915527,-0.0100708,-0.065155,0.0306702,-0.0408936,-0.0209045,0.00656128,0.025177,2.95425,2.9744,0.128041,0.469586,-0.780445,-15.3523,17.8273,13.5614,207.643,-1058.39,0.0770316,-0.0321579,-0.097084,-0.00507355,-0.0297546,0.0318146,0.056572,-0.0951767,0.0315475,0.199127,0.165672,0.226555,0.181465,-0.152054,0.205727,-0.194092,0.20134,-0.0273132,0.0686264,0.103683,0.107841,-0.087204,-0.199318,0.0406265,0.15358,0.240021,-0.213814,-0.184631,-0.097084,-0.120201,0.0371552,0.258942,-0.063591,0.0201416
655,7,0.288029,-0.137707,-0.852938,75.2673,-120.754,-96.181,202.9,-304.365,-0.0795827,-0.72018,0.47312,1.65364,-14.2889,40.5747,-6.15182,198.84,300.407,0.0558755,0.507198,-0.0287174,0.291194,262.71,-108.224,-62.8127,-199.669,-305.422,-0.130892,0.00793457,0.00991821,-0.0012207,0.0727844,0.0543213,0.0398254,0.0112915,0.116425,-0.0242615,0.0166321,-0.0915527,-0.0439453,0.0166321,0.00823975,-0.065918,-0.0592041,2.65366,2.6387,0.00335693,-0.00595093,0.0115967,0.0117493,0.0424194,0.0465393,-0.0692749,-0.0167847,0.0227356,0.000152588,2.845,2.87094,-0.0514585,-0.241919,-1.13654,-105.552,-124.408,145.895,98.0019,-965.409,0.0409765,-0.0162888,-0.0779343,0.0135803,0.00484467,0.0223923,0.0511551,-0.0809097,0.0286102,0.186386,0.167351,0.192795,0.195427,-0.153198,0.189705,-0.160446,0.204926,-0.00564575,0.0907898,0.120583,0.113335,-0.0931549,-0.204659,0.0324631,0.121994,0.202904,-0.241394,-0.186539,-0.0937271,-0.151901,0.034256,0.257072,-0.0908661,-0.00579834
655,8,-0.15771,0.125678,0.208636,-102.062,54.8841,-40.7282,202.9,-304.365,-0.0795827,0.336504,0.478145,-0.819935,-13.5805,-99.5879,49.6358,198.84,300.407,0.0558755,0.0623605,0.501347,1.70968,-136.234,-109.203,-25.8801,-199.669,-305.422,-0.130892,0.0038147,-0.00808716,0.0012207,0.0592041,0.00946045,0.0117493,0.0215149,0.0839233,-0.00823975,0.00534058,-0.0935364,-0.0256348,0.0151062,-0.0158691,-0.0346375,-0.0564575,2.67136,2.63596,0.0308228,0.00457764,-0.00411987,-0.0302124,0.13504,0.0289917,-0.00213623,0.0193787,-0.00198364,0.0398254,2.74536,2.76321,0.126079,-0.155547,-2.56712,74.9135,160.162,-62.2103,270.073,-1087.6,0.0557995,-0.0450516,-0.116196,0.0043869,-0.00198364,0.0253677,0.0471497,-0.10643,0.0291443,0.194397,0.189629,0.212708,0.180321,-0.16674,0.173531,-0.184822,0.203133,-0.018425,0.0597382,0.105667,0.126038,-0.113258,-0.224648,0.0450516,0.15049,0.214272,-0.241814,-0.183754,-0.0905609,-0.129814,0.039711,0.255318,-0.0838089,0.00183105
655,9,-0.247101,0.390177,-0.145748,-13.2934,-50.5904,-77.7461,202.9,-304.365,-0.0795827,0.249525,0.300195,-0.81995,205.663,41.7436,-6.00799,198.84,300.407,0.0558755,-0.463829,-1.00432,-0.418533,85.0303,31.3605,-7.20772,-199.669,-305.422,-0.130892,-0.000152588,0.0186157,0.0135803,0.117035,0.0195312,0.0344849,0.01297,0.0923157,-0.0367737,0.00396729,-0.0723267,-0.062561,0.0138855,-0.0300598,-0.0643921,-0.0695801,2.64557,2.62955,0.0305176,-0.0062561,-0.0134277,-0.052948,0.132904,-0.00106812,-0.0514221,0.00808716,0.0521851,0.0405884,-2.66312,-2.47253,0.220646,0.0297301,1.72311,75.2376,-159.954,164.601,207.643,-1058.39,0.0770316,-0.0405502,-0.0611115,-0.00423431,0.00461578,0.0479126,0.0457764,-0.0922775,-0.00312805,0.245628,0.201912,0.222816,0.199738,-0.15255,0.179787,-0.206985,0.19371,-0.038147,0.0551605,0.104103,0.105667,-0.109215,-0.203247,0.0509262,0.16201,0.222664,-0.225601,-0.178223,-0.107841,-0.137978,0.0403595,0.26165,-0.0658035,0.0088501
656,0,-0.158088,0.302255,-0.145573,-101.313,-86.3343,-59.2584,202.9,-304.365,-0.0795827,0.247639,0.655159,-0.820035,30.3455,-64.3539,-136.191,198.84,300.407,0.0558755,-0.290235,-0.118682,1.70968,-47.4219,-178.98,-7.21827,-199.669,-305.422,-0.130892,0.0218201,-0.00595093,0.039978,0.0338745,0.0254822,0.0198364,0.010376,0.0637817,-0.00427246,-0.000762939,-0.0872803,-0.0450134,0.0125122,-0.00778198,-0.0566101,-0.043335,2.62421,2.67136,-0.00396729,0.0227356,0.0177002,-0.0413513,0.114288,0.00732422,-0.0210571,0.00457764,-0.0180054,0.0105286,-3.17123,-3.16284,0.12939,-0.0616584,0.293152,300.96,124.725,13.0054,207.643,-1058.39,0.0770316,-0.0458527,-0.0513458,0.000686646,-0.00865936,0.0424576,0.0475311,-0.0912857,0.0124741,0.215263,0.192604,0.231857,0.213852,-0.1614,0.184898,-0.188828,0.187607,0.00709534,0.062027,0.104637,0.111923,-0.103264,-0.190544,0.0320816,0.149689,0.238724,-0.222511,-0.185471,-0.0971222,-0.111008,0.038147,0.258141,-0.0914001,0.0109863
656,1,-0.0674978,0.21381,-1.20776,-14.444,126.004,89.5724,307.21,-292.514,0.0693982,0.2519,-0.320658,0.594065,-233.411,-100.801,-136.355,198.84,300.407,0.0558755,0.330123,0.0591767,-0.0636728,-4.10738,241.132,-63.087,-199.669,-305.422,-0.130892,-0.0114441,0.0164795,-0.00106812,-0.0434875,0.0283813,0.00518799,-0.0138855,0.0222778,-0.01297,0.00717163,-0.0802612,-0.0352478,0.00823975,-0.0204468,-0.0686646,-0.0360107,2.66205,2.65381,0.00671387,0.0276184,0.0012207,-0.0198364,0.106506,-0.0337219,0.042572,-0.0205994,-0.00274658,0.0271606,-3.1517,-3.17993,0.0400789,0.560941,0.649716,165.358,53.4076,-24.4195,207.643,-1058.39,0.0770316,-0.0269699,-0.0688553,-0.0110245,0.0157166,0.0257874,0.0284576,-0.0962067,0.0374985,0.22747,0.208435,0.234718,0.172958,-0.179176,0.195274,-0.165405,0.227127,-0.0300217,0.0516891,0.146484,0.114632,-0.100784,-0.187988,0.0373077,0.142174,0.213432,-0.248947,-0.188828,-0.0903702,-0.129013,0.0504303,0.224266,-0.0902176,-0.0134277
656,2,0.197587,0.127141,-0.499081,73.0066,267.664,89.6325,202.9,-304.365,-0.0795827,-0.455488,0.474189,0.239947,-233.549,-65.7741,-210.702,198.84,300.407,0.0558755,0.24115,0.235857,-0.063784,85.2377,-38.661,-62.9418,-199.669,-305.422,-0.130892,0.00808716,0.0131226,-0.00991821,0.00442505,0.0140381,-0.0163269,0.0343323,0.0140381,-0.00564575,0.0192261,-0.0413513,-0.0294495,0.0256348,0.0184631,-0.0666809,-0.0382996,2.64542,2.6651,0.0106812,0.0276184,0.00686646,0.00259399,0.0924683,-0.0158691,0.0839233,-0.0305176,0.0184631,0.0393677,-3.18436,-3.17581,-0.229811,-0.418406,-0.420912,120.311,-124.498,70.2162,207.643,-1058.39,0.0770316,-0.0422668,-0.0697708,0.0131607,-0.0260925,0.0348663,0.0507355,-0.0993729,0.0278473,0.245857,0.212173,0.256271,0.232124,-0.163994,0.203362,-0.184517,0.182495,-0.0315857,0.0632477,0.121078,0.100937,-0.149231,-0.233154,0.0399399,0.130157,0.236664,-0.157471,-0.166321,-0.1091,-0.097084,0.0437164,0.232391,-0.105324,0.00518799
656,3,0.286978,-0.137358,-0.144696,117.91,161.89,-96.2567,202.9,-304.365,-0.0795827,-0.102394,0.29841,-0.466714,118.128,-28.8381,-117.557,198.84,300.407,0.0558755,0.0647211,0.235068,-1.12809,-136.267,-109.185,29.8771,-296.469,-184.639,-0.228464,0.0213623,-0.00946045,0.025177,0.0231934,0.00183105,0.0050354,0.0221252,0.0341797,0.000457764,0.00549316,-0.111847,-0.0546265,-0.00473022,0.00442505,-0.0444031,-0.0469971,2.65442,2.64542,0.00198364,0.0163269,0.022583,0.0234985,0.0628662,0.0180054,0.0808716,-0.0630188,0.00518799,0.0382996,-3.19229,-3.14514,-0.0498791,0.204874,0.292892,-60.4904,89.1436,70.0506,207.643,-1058.39,0.0770316,-0.0234985,-0.0566864,-0.0376892,-0.00160217,0.028801,0.0545502,-0.0898743,0.0110626,0.219574,0.200081,0.234642,0.189781,-0.1577,0.18692,-0.177803,0.22686,-0.0326538,0.0801849,0.13195,0.0809479,-0.11734,-0.198593,0.0494385,0.134811,0.230484,-0.13752,-0.131416,-0.120964,-0.107536,0.0453949,0.191879,-0.109406,0.000915527
656,4,-0.0726057,0.391953,1.62512,-13.6671,-15.2241,52.4414,202.9,-304.365,-0.0795827,0.248359,0.389186,0.240429,-189.421,-100.567,-136.326,198.84,300.407,0.0558755,0.155013,-0.472311,-1.1278,40.7391,31.2321,-62.9914,-171.964,-341.504,-0.102471,0.0169373,-0.00320435,0.030365,0.0558472,0.0114441,0.00366211,0.0134277,0.0386047,-0.019989,0.0193787,-0.0975037,-0.0547791,0.00335693,-0.0219727,-0.06073,-0.0398254,2.64282,2.64053,-0.00366211,0.0315857,0.018158,-0.0138855,-0.0177002,0.0157166,0.0636292,0.0228882,-0.00335693,0.0260925,-3.13782,-3.15033,0.21815,0.0259553,-0.422215,210.601,124.741,31.9645,207.643,-1058.39,0.0770316,-0.0350189,-0.0500488,0.0131989,-0.00396729,0.0315857,0.0458527,-0.087471,0.0137711,0.227165,0.201454,0.233498,0.195351,-0.18013,0.195236,-0.179138,0.215149,-0.0212479,0.0589371,0.110855,0.110703,-0.133171,-0.220032,0.0621033,0.136261,0.258636,-0.135155,-0.113602,-0.119781,-0.0922012,0.0201797,0.202446,-0.106812,-0.00579834
656,5,-0.0692223,0.0379298,0.562932,-13.4314,-50.5447,15.2575,202.9,-304.365,-0.0795827,0.248367,0.300612,0.947384,161.77,41.4748,-154.715,198.84,300.407,0.0558755,-0.111212,-0.64929,0.645759,40.4671,136.243,-44.4402,-199.669,-305.422,-0.130892,0.0219727,0.0169373,0.0259399,0.0682068,0.0308228,0.0100708,0.00640869,0.00534058,-0.0201416,0.00488281,-0.0601196,-0.045166,0.0205994,-0.014801,-0.0701904,-0.0460815,2.68845,2.66449,0.00732422,0.00411987,-0.000152588,-0.00640869,-0.052948,0.0331116,0.00839233,0.0480652,-0.00411987,0.00228882,-3.07663,-3.11264,0.0380667,0.202374,-1.13742,-105.858,-18.0014,-99.3946,191.965,-965.391,-0.0683635,-0.0380707,-0.0522995,0.0124359,-0.0161362,0.0432968,0.0375748,-0.0912857,0.00141144,0.219269,0.203896,0.236206,0.185699,-0.16655,0.172119,-0.187492,0.222855,-0.0536728,0.0656891,0.131226,0.0867462,-0.13382,-0.206108,0.0467682,0.138588,0.244637,-0.140915,-0.148392,-0.122986,-0.105476,0.0534439,0.219765,-0.0862885,0.0109863
656,6,0.107753,-0.137567,1.27153,-101.035,-156.912,-3.4209,202.9,-304.365,-0.0795827,0.423748,0.301713,1.65443,-146.709,144.966,-173.526,198.84,300.407,0.0558755,-0.112105,-0.118823,-0.0638797,-47.986,66.0074,-81.6417,-199.669,-305.422,-0.130892,-0.00213623,-0.01297,0.00320435,0.0112915,0.00839233,0.0216675,-0.0131226,-0.00732422,-0.0161743,0.0106812,-0.071106,-0.0447083,0.00366211,0.000915527,-0.0621033,-0.0483704,2.64038,2.62085,0.0318909,0.0106812,0.0340271,-0.00518799,-0.113678,0.0271606,-0.113068,0.0987244,0.0105286,0.00747681,-2.99988,-3.01147,-0.409979,0.20229,-1.1369,165.574,-160.003,126.788,66.7261,-1203.88,0.496958,-0.0568008,-0.0606537,0.00602722,0.0056839,-0.0140762,0.0473785,-0.0996399,0.0259018,0.243683,0.194702,0.234489,0.197563,-0.1577,0.177689,-0.171661,0.204659,-0.0408936,0.0508881,0.122185,0.110703,-0.11982,-0.202446,0.0611115,0.125465,0.248756,-0.126076,-0.147514,-0.111504,-0.100288,0.040741,0.22049,-0.101089,0.00305176
656,7,0.106997,0.215586,0.563107,-190.345,54.47,33.5442,202.9,-304.365,-0.0795827,-0.101219,0.120845,-0.820138,-102.78,145.222,-80.5734,198.84,300.407,0.0558755,0.065593,-0.0303979,-1.48273,129.301,66.4541,-62.9498,-154.838,-392.599,-0.0754772,0.00915527,0.0134277,0.0245667,0.014801,0.0283813,0.00701904,0.00579834,-0.0088501,-0.00686646,-0.0291443,-0.10025,-0.0712585,0.0050354,-0.0218201,-0.0550842,-0.0393677,2.67456,2.63672,0.0260925,0.0192261,0.00167847,-0.00656128,-0.196991,0.0233459,-0.138245,0.110931,-0.0012207,0.0166321,-2.92831,-2.9599,-0.140286,0.0258879,-0.421797,165.411,124.732,32.0171,207.643,-1058.39,0.0770316,-0.0344086,-0.0802231,0.0187302,0.00492096,-0.0230026,0.0463104,-0.0899506,-0.000228882,0.211639,0.157051,0.233345,0.176048,-0.172806,0.205994,-0.18261,0.214195,-0.0307083,0.0570297,0.148354,0.132217,-0.11982,-0.21904,0.0555801,0.116158,0.214691,-0.118523,-0.137329,-0.108757,-0.0757599,0.039978,0.224609,-0.106049,0.00793457
656,8,0.0218928,-0.0506894,-0.853376,-13.4314,-50.5447,15.2575,202.9,-304.365,-0.0795827,-0.102419,0.564133,-2.58758,206.655,-133.498,-98.8897,147.253,220.562,0.0408824,-0.28937,-0.295814,1.00027,85.2154,-38.6489,-25.7704,-199.669,-305.422,-0.130892,-0.0144958,0.0190735,0.0282288,0.0726318,0.0119019,0.00183105,0.0100708,-0.0233459,-0.0274658,-0.014801,-0.0959778,-0.0442505,-0.00152588,0.00213623,-0.0724792,-0.0369263,2.6828,2.64359,0.00396729,0.0254822,0.00213623,0.0334167,-0.106354,0.0233459,-0.0234985,0.147247,0.00442505,0.0144958,-2.892,-2.85797,-0.229828,-0.32955,-0.421068,-422.153,17.6181,-61.3812,207.643,-1058.39,0.0770316,-0.031662,-0.072937,0.000991821,0.0166321,-0.0113297,0.063858,-0.106621,-0.000686646,0.220108,0.186195,0.251808,0.188065,-0.186386,0.197983,-0.172272,0.20546,-0.0345993,0.0537109,0.113792,0.107079,-0.118256,-0.227814,0.030632,0.108986,0.236435,-0.119591,-0.122681,-0.103951,-0.0703049,0.0229263,0.213776,-0.0918961,-0.0344849
656,9,0.111358,-0.226987,-0.853157,30.0159,90.8625,-40.5498,202.9,-304.365,-0.0795827,-0.452641,-0.235405,1.65398,-146.212,39.8559,-80.577,198.84,300.407,0.0558755,0.243532,-0.295424,-1.83727,-3.54322,-3.85531,11.3364,-201.769,-303.498,-0.132781,-0.0469971,0.00213623,0.0422668,0.071106,0.0184631,-0.00366211,-0.00213623,-0.0401306,-0.0120544,-0.00228882,-0.0871277,-0.0360107,0.0106812,-0.0120544,-0.0566101,-0.057373,2.67761,2.65045,0.0215149,0.0447083,0.0144958,0.0369263,0.102539,0.0454712,0.00213623,0.171814,0.0395203,0.0180054,3.09708,3.06854,0.219781,0.206183,1.00769,-60.5662,-89.0855,-23.906,207.643,-1058.39,0.0770316,-0.0360107,-0.065155,-0.0389481,0.022316,-0.0239944,0.0484085,-0.0908661,0.0278091,0.219498,0.205421,0.222969,0.183296,-0.15831,0.20916,-0.178719,0.19104,-0.0241089,0.0664902,0.0653076,0.112381,-0.130348,-0.231819,0.0892258,0.0973129,0.243149,-0.115623,-0.131493,-0.0894928,-0.109634,0.0691986,0.216141,-0.124283,0.0186157
657,0,-0.0637367,-0.316791,-1.91574,-14.2231,125.93,-59.2336,268.648,-296.895,0.014322,-0.101897,-0.0560547,1.65417,-57.8095,-29.7819,-154.842,198.84,300.407,0.0558755,-0.289377,-0.207481,0.645507,-3.40055,-38.8874,-81.5807,-199.669,-305.422,-0.130892,-0.00610352,0.017395,0.00152588,0.0518799,0.0366211,-0.0161743,0.0213623,-0.0230408,-0.015564,-0.0112915,-0.087738,-0.0488281,0.00717163,-0.0248718,-0.0761414,-0.0378418,2.65488,2.64771,0.0192261,0.0111389,0.0387573,0.0138855,0.141754,0.0106812,-0.010376,0.145416,0.00473022,0.00244141,3.29041,3.28522,0.486163,-0.0641075,-1.13748,120.296,-160.144,51.4249,66.7186,-1164.14,0.427035,-0.0406265,-0.0756836,-0.000228882,0.0289536,0.00118256,0.0705719,-0.0902557,-0.00637054,0.221405,0.189285,0.24025,0.191383,-0.188675,0.182381,-0.186043,0.207748,-0.0236893,0.0370789,0.0569916,0.107727,-0.137253,-0.209351,0.100479,0.0844574,0.276794,-0.122871,-0.116158,-0.107994,-0.0947952,0.0764084,0.223579,-0.134888,-0.00793457
657,1,-0.0692962,-0.0502714,0.917098,-102.714,160.828,33.6219,202.9,-304.365,-0.0795827,0.251643,-0.0548517,-1.17333,29.9243,5.75145,-61.8689,203.753,274.942,0.0650926,0.330549,0.0589445,-0.773138,85.2042,-38.6428,-7.1847,-199.669,-305.422,-0.130892,0.00488281,-0.00152588,-0.00854492,0.0190735,0.0285339,-0.0411987,0.00839233,-0.0535583,0.00442505,0.0114441,-0.0695801,-0.0445557,0.00167847,-0.0163269,-0.0737,-0.0444031,2.63611,2.64511,0.00991821,0.00686646,0.0285339,-0.0508118,0.0131226,-0.0128174,0.0476074,0.181274,0.01297,-0.0126648,3.2753,3.28613,0.309907,-0.326303,1.36607,-60.5714,53.3982,-5.30263,207.643,-1058.39,0.0770316,-0.0419235,-0.0713348,0.0220871,0.00297546,-0.00640869,0.0448227,-0.0970459,0.0205231,0.251122,0.197754,0.234032,0.177574,-0.157127,0.171509,-0.168495,0.181084,-0.0494385,0.0698853,0.0850296,0.122528,-0.115776,-0.231552,0.126534,0.075264,0.26535,-0.125465,-0.127373,-0.117874,-0.083313,0.100327,0.207443,-0.152435,-0.00335693
657,2,-0.42084,0.0352484,-1.2082,30.5296,-15.0353,-21.8963,190.458,-329.62,-0.0856285,-0.366143,0.119859,0.947023,-410.377,73.5102,-25.0038,198.84,300.407,0.0558755,-0.379229,0.322999,0.64528,306.698,31.8868,-81.4179,-199.669,-305.422,-0.130892,0.00640869,0.00259399,0.022583,0.00305176,0.0411987,-0.0390625,0.0219727,-0.0305176,-0.0202942,-0.00228882,-0.0672913,-0.0379944,0.00335693,-0.0115967,-0.0454712,-0.0375366,2.67471,2.63611,0.0402832,0.0062561,0.0273132,-0.0744629,0.0161743,-0.0088501,0.169373,0.175171,0.0320435,0.00366211,3.28629,3.26828,0.0389661,-0.151789,-0.421693,-150.922,124.673,32.3852,207.643,-1058.39,0.0770316,-0.027771,-0.0692368,0.0451279,0.000267029,0.00450134,0.0559616,-0.0945663,0.0230026,0.234451,0.201759,0.230713,0.185394,-0.152512,0.203285,-0.179825,0.170326,-0.0326157,0.0513077,0.0410461,0.113106,-0.122452,-0.198631,0.0931931,0.0907135,0.284309,-0.145149,-0.116501,-0.0965881,-0.0871277,0.0801086,0.226021,-0.113754,0.015564
657,3,-0.068319,-0.138821,0.563021,-102.741,160.837,52.2226,202.9,-304.365,-0.0795827,0.0748732,-0.0554532,0.24042,-57.6111,-64.8303,-173.418,198.84,300.407,0.0558755,-0.288945,-0.296047,0.290804,-136.876,135.827,29.7965,-199.669,-305.422,-0.130892,0.0283813,0.00198364,0.00564575,-0.0193787,0.0228882,-0.0413513,-0.0216675,-0.0062561,-0.0227356,-0.0119019,-0.088501,-0.0456238,0.0154114,-0.00808716,-0.0843811,-0.0546265,2.61337,2.64847,-0.0238037,-0.0306702,-0.0297546,-0.0462341,-0.0267029,-0.00549316,0.130005,0.16571,0.0256348,-0.00595093,3.26508,3.27682,0.129373,0.0271967,0.292996,29.8583,-89.0022,13.6968,207.643,-1058.39,0.0770316,-0.0244522,-0.0742722,0.0101089,0.02388,0.0104141,0.042305,-0.0931549,0.0439453,0.21904,0.194435,0.256233,0.192337,-0.175667,0.181122,-0.186424,0.231934,-0.0515747,0.0431824,0.0758743,0.105019,-0.150223,-0.224342,0.10952,0.099144,0.272827,-0.124397,-0.100555,-0.114632,-0.109138,0.0855255,0.218887,-0.125618,-0.000610352
657,4,0.377494,-0.314005,-0.852719,163.176,-84.9731,-40.2657,202.9,-304.365,-0.0795827,-0.191002,0.209618,1.30058,-145.382,-100.351,-210.637,198.84,300.407,0.0558755,0.330102,0.324178,-1.12796,-136.125,-144.217,-63.04,-327.497,-184.716,-0.247042,0.0187683,0.0123596,0.00778198,-0.0108337,0.0201416,-0.0337219,0.0038147,-0.0215149,-0.00686646,0.0135803,-0.0596619,-0.0369263,0.0117493,-0.0131226,-0.0634766,-0.0646973,2.64282,2.67609,-0.0158691,-0.000915527,0.0154114,-0.00488281,-0.0569153,0.0436401,0.184479,0.142365,0.0379944,-0.00869751,3.15231,3.1929,-0.142748,-0.155597,-2.5668,-15.3624,-160.302,-23.8333,145.218,-1052.42,0.139142,-0.0235748,-0.0647736,0.0154877,0.0135803,0.00389099,0.0585938,-0.0995255,0.0643539,0.236473,0.19371,0.25013,0.18219,-0.165558,0.17849,-0.186005,0.196533,-0.0258255,0.0569153,0.0806046,0.137558,-0.123291,-0.212746,0.0756454,0.0801849,0.251694,-0.121117,-0.119209,-0.11734,-0.120392,0.0770569,0.220222,-0.146942,-0.0140381
657,5,0.287807,-0.40231,0.209557,-13.3486,-50.5721,-40.5446,202.9,-304.365,-0.0795827,0.161165,0.0341714,2.00779,-100.857,-205.24,-173.413,198.84,300.407,0.0558755,-0.0233588,-0.118719,-0.418559,261.961,206.773,-118.673,-199.669,-305.422,-0.130892,0.00350952,0.00793457,-0.0038147,-0.0213623,0.0149536,0.00808716,-0.00183105,-0.0178528,-0.00701904,-0.0193787,-0.0669861,-0.0520325,0.0154114,-0.00427246,-0.0582886,-0.0566101,2.66098,2.66068,-0.0248718,0.00747681,-0.00183105,0.0245667,-0.130463,0.00640869,0.174866,0.0863647,0.00442505,0.0180054,3.04794,3.0545,0.0413605,0.385118,1.72269,255.898,-88.827,88.8498,207.643,-1058.39,0.0770316,-0.0208664,-0.0778198,0.0265121,0.00476837,-0.00923157,0.0400543,-0.0646973,0.0399017,0.233879,0.206413,0.232697,0.19043,-0.156364,0.20298,-0.184822,0.218201,-0.0236511,0.0692368,0.0703812,0.118561,-0.135498,-0.197525,0.0614929,0.0819778,0.28553,-0.140877,-0.11795,-0.109177,-0.113907,0.0972366,0.221825,-0.154152,0.00610352
657,6,0.287955,-0.225908,-0.498774,-58.0312,55.1278,-3.46135,202.9,-304.365,-0.0795827,0.954092,-0.0507806,0.240995,160.94,181.682,-24.655,198.84,300.407,0.0558755,0.242058,-0.471278,1.35538,-48.0953,101.021,-44.4818,-199.669,-305.422,-0.130892,0.00244141,0.00808716,-0.00823975,-0.0151062,0.040741,0.0447083,0.0627136,-0.01297,-0.0357056,-0.0140381,-0.0741577,-0.0405884,0.012207,-0.00274658,-0.0784302,-0.0363159,2.64755,2.66876,-0.0213623,-0.000152588,0.0132751,-0.00534058,-0.13855,0.00778198,0.137024,0.153351,0.00595093,-0.00991821,2.95151,2.95959,0.219814,0.0284718,1.008,-105.674,53.5224,70.1659,207.643,-1058.39,0.0770316,-0.0468445,-0.0657272,0.0141525,0.00286102,0.0371552,0.0604248,-0.107956,0.030899,0.21698,0.19455,0.238953,0.197983,-0.169792,0.194969,-0.187607,0.202637,-0.0144577,0.0152206,0.0957108,0.0920105,-0.112953,-0.207672,0.128021,0.0608826,0.243683,-0.0873184,-0.131454,-0.080986,-0.122375,0.0575638,0.190849,-0.156059,0.00549316
657,7,-0.336188,0.389899,0.208241,-101.478,-86.2794,52.346,202.9,-304.365,-0.0795827,0.162761,0.299312,-2.58734,-189.595,-65.5272,-154.92,173.528,373.723,0.0220236,-0.0240322,0.323298,-1.12817,85.2154,-38.6489,-25.7704,-233.923,-380.951,-0.126704,-0.000610352,0.0112915,-0.0161743,-0.00701904,0.0534058,0.0132751,-0.000915527,0.00976562,-0.00244141,-0.0180054,-0.100403,-0.0572205,0.00915527,-0.00610352,-0.085907,-0.0370789,2.64725,2.63977,-0.022583,0.0132751,0.0309753,0.032959,-0.0892639,0.0430298,0.124207,0.173187,0.0244141,-0.0038147,2.84592,2.8923,-0.408647,-0.240099,-0.063462,165.423,-53.3641,13.4764,207.643,-1058.39,0.0770316,-0.0333786,-0.060463,0.00946045,0.00160217,-0.00579834,0.0500488,-0.0935364,0.0668335,0.216408,0.187531,0.230103,0.185928,-0.172195,0.20504,-0.176239,0.208969,-0.0356293,0.0361633,0.0769806,0.104141,-0.126648,-0.24189,0.105476,0.0423431,0.227737,-0.0817871,-0.111351,-0.0510025,-0.0906372,0.0422287,0.213394,-0.160179,-0.0112915
657,8,-0.0671201,0.0372332,-0.853552,-57.8083,-15.4311,89.5776,202.9,-304.365,-0.0795827,-0.191731,0.564165,-0.466835,117.978,6.19275,-173.32,198.84,300.407,0.0558755,0.155438,-0.472543,-1.83727,-3.59675,31.1281,-44.4322,-182.721,-303.45,-0.121376,0.0328064,0.0135803,-0.000152588,0.0123596,0.071106,0.0360107,-0.00366211,0.0196838,-0.0109863,-0.00869751,-0.0866699,-0.017395,0.0218201,-0.00183105,-0.0445557,-0.0605774,2.66235,2.66037,0.0138855,0.0363159,-0.00396729,0.012207,-0.0202942,0.0112915,0.0364685,0.19104,0.00778198,0.0306702,2.7771,2.77496,-0.1415,-0.15371,-1.49414,29.8683,89.1274,51.0915,267.217,-1078.33,0.0428215,-0.0457001,-0.0822067,0.0348663,0.0346756,0.00610352,0.0468063,-0.0979996,0.0539017,0.228271,0.211945,0.257645,0.175247,-0.154991,0.190964,-0.198898,0.22789,-0.0193405,0.0120926,0.0624847,0.10231,-0.121117,-0.211678,0.11734,0.0465393,0.243645,-0.0862122,-0.119057,-0.0589752,-0.087204,0.060463,0.196838,-0.17128,0.0201416
657,9,-0.513081,0.0360147,1.27052,118.424,55.9926,-77.603,202.9,-304.365,-0.0795827,0.337944,-0.0538016,1.30099,-189.433,-100.562,-117.742,198.84,300.407,0.0558755,0.153701,-0.0299457,-0.773215,85.1173,-3.64113,-7.19621,-199.669,-305.422,-0.130892,0.0254822,0.0367737,-0.00930786,0.00579834,0.0227356,0.0430298,0.00991821,0.0250244,-0.0270081,-0.000152588,-0.0827026,-0.0396729,-0.00106812,-0.00671387,-0.062561,-0.032959,2.63336,2.65152,0.00762939,-0.00457764,-0.0166321,0.0724792,0.154724,-0.000457764,-0.00610352,0.213318,0.00457764,0.0193787,-2.62772,-2.40921,-0.140736,0.20297,-0.779663,165.423,-53.3641,13.4764,207.643,-1058.39,0.0770316,-0.0276184,-0.0926208,0.0151825,0.00713348,0.0257492,0.0541306,-0.0961304,0.0568008,0.230904,0.183334,0.234375,0.177727,-0.164337,0.211487,-0.185356,0.235367,-0.0629425,0.00598907,0.0629425,0.0995636,-0.0979996,-0.215111,0.0994492,0.0298309,0.22068,-0.126534,-0.137444,-0.0876617,-0.102272,0.0553131,0.20668,-0.140762,-0.00427246
658,0,0.113764,-0.492462,-1.56127,163.51,-155.569,-21.6298,103.291,-409.046,-0.175937,-1.07279,0.471584,3.06728,-189.06,-170.65,-117.725,198.84,300.407,0.0558755,0.329485,0.0595251,1.00052,41.1851,-143.782,-81.5196,-199.669,-305.422,-0.130892,0.0466919,0.0418091,0.00320435,0.00274658,0.0596619,0.0144958,0.0132751,0.0276184,0.000762939,-0.000610352,-0.0891113,-0.0291443,0.0357056,0.000152588,-0.0422668,-0.0262451,2.65991,2.65091,0.0263977,-0.0088501,-0.00259399,0.0665283,0.0921631,-0.00640869,-0.0114441,0.23407,0.0245667,0.0216675,-3.19107,-3.17993,-0.318223,-0.149969,0.651384,-60.5427,17.8188,13.614,207.643,-1058.39,0.0770316,-0.023613,-0.0433731,0.0335693,-0.00492096,-0.00919342,0.036087,-0.0982285,0.0307465,0.237732,0.19371,0.236168,0.175972,-0.166817,0.198364,-0.161667,0.211716,-0.0382233,0.019989,0.0743103,0.10334,-0.121765,-0.2034,0.120087,0.0505447,0.229111,-0.0871277,-0.116463,-0.061264,-0.100975,0.0510025,0.187492,-0.16758,0.00274658
658,1,-0.0641062,-0.757797,-0.144912,-233.015,-228.165,52.2206,202.9,-304.365,-0.0795827,0.335123,0.39007,2.00782,-101.589,-65.0684,-192.031,198.84,300.407,0.0558755,0.330563,-0.117723,-0.0636147,-4.07613,206.161,29.8531,-199.669,-305.422,-0.130892,0.00518799,0.0228882,-0.0175476,-0.0323486,0.0340271,0.00152588,0.00564575,0.00442505,-0.0366211,0.0119019,-0.098114,-0.0514221,0.0314331,-0.00640869,-0.0363159,-0.0564575,2.66449,2.64801,0.00946045,-0.00335693,-0.0350952,0.050354,0.0720215,0.00213623,0.00717163,0.244141,0.00823975,0.0239563,-3.1604,-3.18085,0.218566,0.0265844,-0.0646608,255.666,88.9377,-81.1493,207.643,-1058.39,0.0770316,-0.0273895,-0.0439835,0.00736237,-0.00564575,0.0157547,0.0404739,-0.0889206,0.0518417,0.233688,0.184326,0.255814,0.180588,-0.139084,0.190353,-0.186653,0.207176,-0.0261307,-0.00667572,0.0689697,0.082283,-0.131187,-0.222702,0.096283,0.0336456,0.252342,-0.118942,-0.120506,-0.061264,-0.107117,0.0771713,0.189629,-0.15625,0.000610352
658,2,-0.331376,-0.14105,-1.20798,-189.553,-122.005,108.035,101.822,-147.525,-0.306727,0.603588,-0.318789,0.594295,116.415,286.571,-61.8783,198.84,300.407,0.0558755,0.064076,0.32375,-0.418652,85.086,31.3301,-100.136,-199.669,-305.422,-0.130892,-0.00946045,0.0109863,-0.0268555,-0.0415039,0.0572205,0.018158,0.0244141,0.020752,-0.0291443,-0.0132751,-0.080719,-0.0244141,0.0271606,0.00198364,-0.0645447,-0.0396729,2.66983,2.65045,0.0267029,0.0259399,-0.0166321,0.00747681,0.144196,-0.0401306,0.035553,0.207214,0.00366211,0.0553894,-3.17108,-3.17062,0.219831,-0.0603833,1.00815,-196.159,-89.1442,-42.6022,207.643,-1058.39,0.0770316,-0.0381851,-0.0595093,0.00453949,0.00732422,0.012207,0.0699615,-0.107803,0.0487137,0.223045,0.245743,0.222702,0.191727,-0.165939,0.172806,-0.18425,0.217323,-0.0268173,-0.01194,0.0705719,0.0859451,-0.125046,-0.216217,0.0905991,0.0666046,0.21183,-0.126991,-0.113487,-0.0919724,-0.140152,0.0815964,0.202179,-0.15049,0.00488281
658,3,-0.15004,-0.75912,-1.91565,-497.184,-335.36,182.087,27.804,-44.9885,-0.467005,-0.367574,0.563231,-0.46695,73.5789,76.06,-117.611,198.84,300.407,0.0558755,-0.287889,-0.208294,-1.83762,-269.087,-144.553,-81.7054,-278.322,-158.955,-0.225993,-0.00762939,0.00228882,-0.0126648,-0.0169373,0.00198364,0.0180054,-0.00473022,-0.00198364,-0.0259399,-0.0158691,-0.0984192,-0.0306702,0.0460815,-0.0382996,-0.0790405,-0.0817871,2.6416,2.68295,0.01297,0.0213623,-0.0315857,0.0544739,-0.0117493,-0.0186157,0.0158691,0.23819,0.0402832,0.0250244,-3.16605,-3.17337,-0.317891,0.294937,1.00815,75.0789,-17.702,51.2269,207.643,-1058.39,0.0770316,-0.029068,-0.0272751,0.019989,-0.00610352,0.00946045,0.0283051,-0.092392,0.0667572,0.194664,0.207405,0.25013,0.182266,-0.172081,0.17746,-0.213737,0.192299,-0.0150681,0.0305939,0.0514221,0.0863647,-0.0722504,-0.214081,0.124092,0.0702667,0.24086,-0.098114,-0.150642,-0.100632,-0.112877,0.0557709,0.22995,-0.148506,-0.0149536
658,4,-0.682838,-0.584911,-1.5624,-585.203,-371.104,200.574,-34.7942,70.1715,-0.616542,0.164441,-0.321292,-0.112926,-13.4344,-99.6404,-173.381,198.84,300.407,0.0558755,0.418019,0.059745,1.00058,-136.484,-4.20396,-44.5003,-199.669,-305.422,-0.130892,-0.00823975,-0.00564575,-0.00137329,-0.0343323,-0.0880432,-0.00915527,-0.00961304,-0.0088501,-0.0135803,-0.0172424,-0.0823975,-0.0424194,0.0280762,-0.0299072,-0.0613403,-0.0497437,2.6326,2.65793,-0.00335693,0.0209045,-0.0221252,0.0622559,-0.00762939,-0.000610352,-0.00671387,0.242004,0.00320435,0.0376892,-3.17139,-3.1485,-0.0498453,0.027163,0.293205,29.8531,53.4816,32.3002,207.643,-1058.39,0.0770316,-0.03685,-0.063591,0.01194,0.00411987,-0.00495911,0.0377274,-0.10231,0.0395966,0.229797,0.208015,0.253983,0.178604,-0.178032,0.190849,-0.196114,0.221252,-0.0318146,0.0313187,0.0311661,0.0346375,-0.0920868,-0.228767,0.0948334,0.0253677,0.225029,-0.0842667,-0.136757,-0.0980759,-0.110512,0.0694656,0.188141,-0.14637,0.0170898
658,5,-0.859517,-0.0566095,-3.68766,-496.475,-511.807,312.38,64.0224,-169.814,-0.351866,0.780109,-0.140956,-1.8799,74.5344,-99.1685,-154.739,146.122,260.824,0.0306586,-0.0235644,-0.206937,0.290934,-3.48751,-3.88573,-81.5922,-199.669,-305.422,-0.130892,-0.00335693,0.0273132,-0.00747681,-0.00183105,-0.197906,0.00778198,0.0239563,0.00320435,-0.0135803,-0.00656128,-0.0723267,-0.0286865,0.0267029,-0.0219727,-0.070343,-0.0328064,2.66174,2.62283,0.0120544,0.020752,-0.0202942,0.0508118,0.188599,0.0471497,-0.0216675,0.193939,0.00854492,0.0242615,-3.06915,-3.09814,0.12776,-0.241886,-1.13675,-15.4588,231.404,-43.3764,411.227,-1044.84,-0.183646,-0.03582,-0.071106,-0.00469208,-0.00293732,0.00648499,0.0590134,-0.103264,0.0529861,0.216103,0.204239,0.239372,0.162354,-0.161819,0.178833,-0.187035,0.203094,-0.016861,0.0166702,0.0366211,0.0614166,-0.0915146,-0.249329,0.102158,0.0566864,0.219383,-0.0986481,-0.123138,-0.128059,-0.12867,0.0761795,0.192375,-0.164108,0.0335693
658,6,-1.21467,0.11833,-3.68827,-1025.33,-549.814,311.614,53.7126,-26.3532,-0.437718,-0.191002,0.209618,1.30058,205.364,111.805,-117.533,198.84,300.407,0.0558755,0.240711,0.412756,-0.0638422,84.9768,66.3439,-62.9764,-199.669,-305.422,-0.130892,-0.00228882,-0.00762939,0.00823975,0.020752,-0.220184,-0.0154114,0.01297,-0.0163269,-0.0189209,-0.01297,-0.0901794,-0.0248718,0.0260925,0.00671387,-0.091095,-0.0556946,2.66006,2.63931,0.017395,0.00915527,-0.0248718,0.0419617,0.232086,-0.00518799,-0.0352478,0.220337,0.00106812,0.0474548,-3.0162,-3.03314,0.309041,-0.149851,0.650654,165.301,124.567,-62.2528,207.643,-1058.39,0.0770316,-0.0450897,-0.0439453,0.00846863,0.0115585,-0.00724792,0.0567627,-0.0875092,0.0373077,0.219612,0.209427,0.227127,0.184593,-0.151901,0.175247,-0.176201,0.190849,-0.0299454,-0.00164032,0.0463486,0.0536728,-0.0958633,-0.222588,0.112,0.0606918,0.242462,-0.127449,-0.115013,-0.1091,-0.122948,0.0962067,0.1717,-0.148582,-0.00152588
658,7,-1.39368,1.00031,-5.45958,-1245.65,-550.977,236.884,101.912,-76.1642,-0.341687,0.603579,-0.230215,-0.112659,-147.329,250.12,-80.6273,198.84,300.407,0.0558755,-0.198916,-0.384974,-1.83751,40.8372,-3.7756,-81.5656,-201.709,-327.62,-0.124849,0.0169373,0.0195312,0.0154114,0.0137329,-0.113678,0.0175476,0.00900269,-0.0234985,-0.0213623,0.00686646,-0.0848389,-0.0442505,0.0424194,0.0062561,-0.0437927,-0.0379944,2.66266,2.64725,-0.0062561,0.0242615,-0.0434875,0.0654602,0.139923,-0.000305176,-0.0372314,0.203857,0.0297546,0.0257874,-2.9361,-2.94815,0.221096,-0.147351,2.08097,75.0096,231.553,31.9343,207.643,-1058.39,0.0770316,-0.0457764,-0.0489426,-0.014534,-0.017395,0.0167084,0.0229263,-0.108566,0.0448227,0.232964,0.205078,0.240135,0.20237,-0.172539,0.198822,-0.188217,0.217857,-0.0662613,-0.00640869,0.0486374,0.0484085,-0.111237,-0.19989,0.119324,0.0593948,0.225716,-0.0881958,-0.109978,-0.110703,-0.134087,0.0751877,0.211296,-0.172501,0.0137329
658,8,-4.59933,3.05904,-9.70065,-1588.06,728.252,-1387.54,278.108,-140.305,-0.0486462,0.336281,0.389653,0.240486,118.614,-133.944,-6.02364,198.84,300.407,0.0558755,0.151709,0.942771,-1.483,350.947,66.9926,-99.9886,-154.467,-542.063,-0.0263274,0.0134277,0.0289917,0.0160217,-0.0144958,-0.000610352,0.0157166,0.00152588,0.00244141,-0.0184631,-0.0257874,-0.0715637,-0.0428772,0.0469971,-0.0151062,-0.0219727,-0.0486755,2.64511,2.6503,0.0346375,0.00442505,-0.0105286,0.0354004,0.0190735,-0.0143433,-0.0135803,0.223389,0.0123596,0.045166,-2.86575,-2.8212,0.218117,0.203666,-0.422527,-60.4953,-231.47,14.0526,207.643,-1058.39,0.0770316,-0.0216293,-0.0549316,-0.000839233,-0.00606537,-0.000953674,0.0499725,-0.0867081,0.039978,0.232887,0.218315,0.25959,0.189743,-0.151787,0.183754,-0.167122,0.221367,-0.0394058,0.0143433,0.018158,0.0570679,-0.0837326,-0.213966,0.12043,0.0554657,0.229073,-0.0784302,-0.117035,-0.110512,-0.123596,0.0722504,0.205116,-0.168648,0.00152588
658,9,-4.59933,3.05904,-9.70065,-1588.06,728.252,-1387.54,278.108,-140.305,-0.0486462,-0.363802,-0.146697,-0.46678,205.599,76.7438,-191.864,198.84,300.407,0.0558755,-0.113395,0.0585413,1.35499,-357.846,-109.76,-44.5985,-199.669,-305.422,-0.130892,0.0134277,0.00991821,0.00686646,-0.0195312,-0.103912,0.0190735,0.0215149,0.0228882,-0.0405884,0.000915527,-0.0610352,-0.0300598,0.0465393,0.00656128,-0.0883484,-0.0576782,2.64816,2.64526,0.0369263,0.012207,-0.0311279,0.0228882,0.00900269,0.0105286,-0.0137329,0.184631,-0.00183105,0.0201416,3.06961,3.10257,-0.0494125,-0.061063,0.650915,300.982,124.758,31.8594,207.643,-1058.39,0.0770316,-0.0469208,-0.0709152,-0.000762939,-0.0124741,0.0101089,0.0505066,-0.094223,0.0466919,0.238266,0.211792,0.256081,0.207901,-0.171967,0.16758,-0.184517,0.204086,-0.0325394,-0.000572205,0.0450897,0.0745773,-0.0934982,-0.244408,0.101776,0.0365448,0.265427,-0.104256,-0.141907,-0.103989,-0.140076,0.0624084,0.202141,-0.171051,0.010376
659,0,-4.59933,3.05904,-9.70065,-1588.06,728.252,-1387.54,278.108,-140.305,-0.0486462,-0.0140088,0.29871,-1.17359,-146.908,180.014,-154.949,352.269,425.68,0.126895,0.152836,0.147186,-0.0638079,-48.2915,171.037,-7.33337,-199.669,-305.422,-0.130892,0.0244141,-0.0198364,0.0109863,0.0210571,-0.0325012,0.0398254,0.00793457,-0.0386047,-0.0257874,0.0123596,-0.0759888,-0.0088501,0.0172424,0.0135803,-0.0457764,-0.057373,2.6416,2.66434,0.0306702,0.0170898,-0.0515747,0.0558472,-0.0886536,-0.0161743,-0.0331116,0.197754,0.0177002,0.0128174,3.25836,3.27011,0.0380835,0.113519,-1.13727,29.865,-124.615,13.7594,98.0246,-1084.64,0.250744,-0.0341415,-0.0652695,-0.00362396,0.00995636,0.0116348,0.0463867,-0.102119,0.0655365,0.238914,0.199623,0.24128,0.190544,-0.160675,0.196419,-0.190697,0.219078,-0.066185,0.00598907,0.0289917,0.0296021,-0.11467,-0.213928,0.128937,0.0481796,0.234985,-0.0769424,-0.0920105,-0.115204,-0.139236,0.0533295,0.160446,-0.16037,0.00549316
659,1,-4.59933,3.05904,-9.70065,-1588.06,728.252,-1387.54,278.108,-140.305,-0.0486462,-0.187949,-0.234337,0.24029,-234.354,74.4235,-117.812,198.84,300.407,0.0558755,-0.0239968,-0.118371,0.645637,174.016,-108.42,11.4771,-199.669,-305.422,-0.130892,0.0233459,0.0109863,0.012207,0.0178528,0.00457764,0.00518799,0.0186157,-0.0198364,-0.010376,0.00106812,-0.0643921,-0.0486755,0.0372314,-0.0158691,-0.057373,-0.0190735,2.63336,2.63611,0.00350952,0.00915527,-0.0744629,-0.065918,-0.261688,-0.00915527,0.0340271,0.148468,-0.00213623,0.0209045,3.26294,3.30566,-0.0495307,0.560924,0.64982,120.333,-124.465,89.0702,207.643,-1058.39,0.0770316,-0.0272369,-0.0597,-0.0311661,-0.0025177,0.00946045,0.063591,-0.11013,0.0637436,0.235062,0.191689,0.251656,0.195465,-0.184822,0.206871,-0.178375,0.187492,-0.0389862,0.0268936,0.00602722,0.0378418,-0.0910568,-0.20565,0.139046,0.0582123,0.219688,-0.0758362,-0.082016,-0.102768,-0.121422,0.0774765,0.163612,-0.138359,0.000915527
659,2,-2.26745,2.57992,-18.9183,-3968.66,-2541.95,85.0158,68.5004,-94.5412,-0.382237,-0.715927,-0.414123,2.36079,-57.2021,-134.931,-229.155,198.84,300.407,0.0558755,0.24288,-0.118408,-1.4826,-48.1711,136.017,-63.079,-107.924,-272.91,-0.0865312,0.0189209,0.0138855,0.0111389,0.0314331,0.118256,0.022583,0.000915527,-0.0112915,-0.052948,-0.00564575,-0.0741577,-0.0166321,0.0411987,0.015564,-0.0595093,-0.0390625,2.6326,2.65869,0.0212097,0.0227356,-0.025177,-0.0157166,-0.0672913,0.0553894,0.0204468,0.126343,-0.00411987,0.014801,3.28156,3.29544,-0.140303,0.114743,-0.421954,-15.3659,89.0526,13.4361,207.643,-1058.39,0.0770316,-0.0471878,-0.0613785,-0.0222015,0.000686646,0.00980377,0.0484467,-0.0965118,0.0221634,0.239143,0.203476,0.243454,0.213013,-0.167198,0.191422,-0.173416,0.204391,-0.0196457,-0.0056839,-0.00137329,0.0102234,-0.0990677,-0.195732,0.134468,0.0587082,0.261307,-0.0837326,-0.114784,-0.0926208,-0.131798,0.0962067,0.186844,-0.142441,-0.0216675
659,3,-2.5348,3.72605,-21.7522,-4891.86,-3040.94,28.0888,63.0645,-79.4188,-0.397741,-0.543641,0.473805,0.593357,-146.981,180.041,-43.4411,198.84,300.407,0.0558755,-0.0246773,0.41198,-0.418734,-3.52093,-3.86748,-25.835,-199.669,-305.422,-0.130892,0.00854492,0.0227356,0.0167847,-0.00717163,0.21286,-0.0546265,0.0205994,-0.00808716,-0.0344849,0.0112915,-0.0668335,-0.0653076,0.0430298,-0.0157166,-0.0469971,-0.0498962,2.66525,2.65442,0.0125122,0.0393677,0.0238037,0.0241089,0.0497437,0.0360107,0.0125122,0.0946045,0.000915527,-0.00717163,3.26248,3.24463,-0.140303,0.114743,-0.421954,74.9996,53.4237,-5.46039,207.643,-1058.39,0.0770316,-0.048027,-0.0452042,-0.00534058,-0.0292206,-0.00133514,0.0784302,-0.0964355,0.0603867,0.246964,0.198135,0.231743,0.191841,-0.173607,0.205116,-0.182991,0.209427,-0.0537109,-0.00675201,0.0320053,0.0640106,-0.112495,-0.221024,0.143852,0.0291824,0.247421,-0.122757,-0.105362,-0.103569,-0.164261,0.0624466,0.155678,-0.122986,-0.00396729
659,4,-3.50388,4.16051,-26.7116,-6122.83,-3753.25,138.217,62.3496,-75.0904,-0.400931,0.60003,0.568204,-1.17325,74.5831,-99.186,-229.077,114.365,236.979,0.0154678,-0.20022,-0.0309417,-1.12816,-180.623,-74.3235,-63.0896,-265.537,-145.269,-0.222808,0.0202942,0.0117493,0.0311279,0.0382996,0.136566,-0.00167847,0.00701904,-0.012207,-0.0140381,-0.015564,-0.0379944,-0.0509644,0.0662231,-0.00335693,-0.0758362,-0.032959,2.62573,2.6387,0.00717163,0.0169373,0.0196838,0.118408,0.0331116,0.00457764,0.0604248,0.104218,0.0273132,0.0334167,3.16559,3.20251,-0.319538,0.203565,-0.421901,120.141,195.85,-24.6176,207.643,-1058.39,0.0770316,-0.0181198,-0.0867462,0.00442505,-0.0373459,0.0094986,0.0562286,-0.0879669,0.0567627,0.230141,0.189705,0.248718,0.202332,-0.159912,0.194778,-0.187531,0.215302,-0.0427628,0.0318909,-0.0025177,0.0475693,-0.0823212,-0.221176,0.14473,0.0566864,0.219345,-0.101089,-0.0933456,-0.0946808,-0.151596,0.060463,0.188446,-0.135803,-0.00640869
659,5,-3.49939,5.1295,-33.0863,-7177.15,-4464.75,43.998,67.9256,-87.3939,-0.386605,-0.187949,-0.234337,0.24029,73.7408,41.0248,-80.4332,198.84,300.407,0.0558755,0.240484,0.58954,-0.418633,306.743,31.8625,-155.761,-199.669,-305.422,-0.130892,0.00183105,0.00473022,-0.000762939,0.0421143,0.0921631,0.0131226,0.00427246,-0.0111389,-0.0427246,-0.00320435,-0.0576782,-0.0337219,0.0245667,-0.0231934,-0.0814819,-0.0363159,2.63489,2.65167,0.0250244,0.00152588,-0.0134277,0.0770569,0.00152588,0.0276184,0.0195312,0.110779,0.0476074,-0.0120544,3.05298,3.0719,-0.0489797,-0.149289,1.00862,-60.524,-195.89,-4.86405,207.643,-1058.39,0.0770316,-0.049324,-0.0863647,0.0147247,-0.0180435,0.0222397,0.060463,-0.105705,0.0615311,0.2248,0.18055,0.250473,0.184135,-0.171013,0.190926,-0.18219,0.20649,-0.0495148,0.00518799,0.00675201,0.0256348,-0.0979614,-0.221062,0.158043,0.0232697,0.263901,-0.106773,-0.0949097,-0.0867081,-0.131187,0.0865173,0.160217,-0.143242,-0.0274658
659,6,-3.6736,6.09811,-38.3988,-8803.56,-5390.97,-13.7626,62.4754,-75.0475,-0.400766,-0.189844,0.209202,-0.46675,29.799,40.7735,-154.801,198.84,300.407,0.0558755,-0.202354,0.0585536,2.0644,85.0192,31.3666,11.378,-199.669,-305.422,-0.130892,0.0192261,0.00778198,0.00946045,0.0682068,0.0271606,0.019989,0.00579834,-0.0100708,-0.00701904,-0.00457764,-0.0292969,-0.0291443,0.0390625,0.00915527,-0.0502014,-0.0498962,2.66037,2.64862,0.0178528,-0.00640869,-0.0238037,0.0488281,-0.0445557,0.0234985,-0.0917053,0.15213,0.0144958,-0.0105286,2.93991,2.94769,-0.587033,-0.238875,0.651853,165.389,124.699,13.1631,207.643,-1058.39,0.0770316,-0.0444412,-0.0766754,0.00450134,-0.0325394,-0.000648499,0.0471115,-0.0914764,0.055542,0.256767,0.206261,0.251503,0.17971,-0.147324,0.205841,-0.185051,0.220871,-0.0302124,-0.0151825,0.00782013,0.0279999,-0.100479,-0.217476,0.130615,0.0630188,0.269089,-0.114136,-0.0878525,-0.0969696,-0.124626,0.0891876,0.158844,-0.152664,-0.00213623
659,7,-3.92998,7.15238,-48.3151,-10472.8,-6564.55,-90.0659,67.0055,-87.5606,-0.387889,-0.013032,-0.233069,1.65427,-320.489,-241.501,-377.981,198.84,300.407,0.0558755,-0.289604,-0.0306972,0.290717,-3.32473,-73.8829,-62.9834,-199.669,-305.422,-0.130892,0.00900269,0.0193787,0.0221252,0.0712585,-0.0190735,0.00244141,-0.000915527,-0.0219727,-0.0183105,-0.00305176,-0.055542,-0.0453186,0.0273132,0.00793457,-0.0819397,-0.0376892,2.63763,2.6297,0.0178528,0.000152588,0.000915527,-0.00183105,-0.0447083,-0.0500488,-0.0617981,0.138702,0.0262451,-0.0317383,2.83722,2.88818,-0.140253,-0.151823,-0.421485,120.21,-53.4057,-5.32501,207.643,-1058.39,0.0770316,-0.0494766,-0.0720978,0.0294495,-0.0300598,0.0370407,0.0304413,-0.0717926,0.0485229,0.246391,0.185699,0.247726,0.215416,-0.169678,0.195198,-0.195656,0.20256,-0.0262451,-0.00862122,0.00938416,0.0228882,-0.104218,-0.227356,0.148315,0.0446701,0.266266,-0.0738144,-0.0696945,-0.0914764,-0.172997,0.0337982,0.161705,-0.107689,0.00213623
659,8,-4.54453,8.55904,-56.8157,-12802.1,-7988.6,-130.024,62.2687,-78.9918,-0.399133,-0.191002,0.209618,1.30058,29.9243,5.75145,-61.8689,198.84,300.407,0.0558755,0.153446,0.500173,-2.54705,306.883,-38.1225,-99.9806,-214.624,-425.888,-0.100423,0.00350952,0.0305176,0.00183105,0.0672913,-0.0663757,0.0247192,-0.0038147,0.00167847,-0.0169373,-0.0195312,-0.0553894,-0.0331116,0.0634766,0.00335693,-0.0692749,-0.035553,2.66129,2.64496,-0.0117493,-0.0180054,-0.0125122,-0.0558472,-0.0416565,-0.0259399,-0.0616455,0.107422,-0.00183105,-0.0286865,2.74078,2.75696,-0.229777,-0.596116,-0.420599,-60.524,-195.89,-4.86405,207.643,-1058.39,0.0770316,-0.0325394,-0.0865173,0.00701904,-0.0203323,0.000762939,0.0341797,-0.0669098,0.0495911,0.22934,0.189743,0.23941,0.205116,-0.173988,0.204697,-0.175629,0.184746,-0.0225449,0.00656128,0.00846863,0.0344086,-0.100784,-0.204926,0.139999,0.0566101,0.231667,-0.0539398,-0.091629,-0.0936127,-0.145302,0.0497818,0.171852,-0.115395,0.000610352
659,9,-4.80265,10.055,-67.0863,-15307.5,-9413.61,-281.848,62.5562,-76.141,-0.400108,-0.189381,0.209035,-1.17368,-191.121,214.838,-99.2324,381.932,463.325,0.137463,-0.0216362,-0.38465,-2.19213,40.9688,-38.8016,-155.897,-217.345,-324.068,-0.135386,-0.0161743,0.0241089,0.0161743,0.0343323,-0.158997,0.0164795,0.00839233,0.00167847,-0.0325012,-0.00976562,-0.0401306,-0.0491333,0.0357056,-0.00244141,-0.0634766,-0.0524902,2.67441,2.63474,-0.00579834,-0.0187683,-0.0338745,-0.0778198,-0.0274658,-0.00259399,-0.0344849,0.109711,0.0186157,-0.0224304,-2.54562,-2.38449,0.0401802,0.027809,0.650654,-15.4265,-53.5307,-61.7292,207.643,-1058.39,0.0770316,-0.0435638,-0.0799179,0.0226212,-0.0181961,0.00888824,0.0510788,-0.0953674,0.0512314,0.252914,0.18959,0.238914,0.171585,-0.183182,0.187378,-0.187531,0.196686,-0.0231934,-0.00640869,-0.00595093,0.0540924,-0.0852585,-0.227432,0.127525,0.0340652,0.241318,-0.07164,-0.103493,-0.0830841,-0.149307,0.0525284,0.148621,-0.110512,0.0012207
660,0,-4.78931,11.5504,-81.2519,-18251.7,-11229.3,-582.937,64.6789,-79.6884,-0.395213,0.250245,0.0342223,0.240513,381.164,147.776,-154.596,198.84,300.407,0.0558755,-0.376592,-0.7384,0.645629,174.268,-178.466,-118.6,-199.669,-305.422,-0.130892,0.0143433,0.0164795,0.0166321,0.0205994,-0.105591,0.0318909,0.0050354,0.0396729,-0.0195312,0.0234985,-0.0469971,-0.0567627,0.0253296,0.00259399,-0.0695801,-0.017395,2.668,2.67319,-0.0112915,0.00411987,-0.0297546,-0.0950623,-0.00442505,-0.0654602,0.00793457,0.0898743,0.0231934,-0.0292969,-3.18039,-3.17596,0.399797,0.385185,1.72227,-105.778,-89.1272,-42.7074,207.643,-1058.39,0.0770316,-0.0312424,-0.0943375,0.031395,-0.0328064,0.012207,0.0438309,-0.0793839,0.0659943,0.227814,0.218506,0.241852,0.178604,-0.17189,0.205002,-0.200424,0.212402,-0.0402451,-0.0143433,0.00953674,0.0512695,-0.133324,-0.21637,0.128441,0.0258255,0.253525,-0.0905228,-0.101738,-0.0820541,-0.150795,0.0374603,0.184555,-0.128708,0.00701904
660,1,-5.48205,12.7767,-96.1267,-21503.2,-13328.8,-698.335,64.2239,-80.624,-0.395428,0.162307,0.210904,-1.17345,-189.21,-135.62,-173.487,83.3069,461.738,-0.0578183,0.682741,0.414205,1.00062,-180.066,-249.399,-267.475,-199.669,-305.422,-0.130892,0.0102234,0.0331116,-0.00244141,0.0392151,0.111694,0.0140381,0.00167847,0.0125122,-0.0114441,-0.0166321,-0.0636292,-0.0701904,0.0334167,0.00671387,-0.0474548,-0.0300598,2.65884,2.6265,-0.0279236,-0.0186157,-0.0308228,-0.10498,-0.0538635,-0.0291443,0.0764465,0.012207,0.0231934,-0.0256348,-3.19809,-3.1752,-0.407832,-0.149986,0.651488,29.7722,17.7362,-43.0531,207.643,-1058.39,0.0770316,-0.0405121,-0.0540924,0.0268173,-0.0118256,0.00312805,0.0673676,-0.0933075,0.0566101,0.221672,0.185852,0.229645,0.182724,-0.152016,0.223961,-0.170746,0.215187,-0.0411987,-0.0102997,0.0135422,0.0229263,-0.119476,-0.220146,0.120468,0.0331879,0.23632,-0.0763321,-0.0841904,-0.109749,-0.145073,0.061264,0.172424,-0.115051,-0.0112915
660,2,-4.66279,14.1851,-115.957,-25853.7,-15999,-1038.29,64.9147,-81.3654,-0.394038,0.0720521,0.388418,0.947247,294.288,-62.9512,-136.018,198.84,300.407,0.0558755,-0.0226854,-0.560737,0.29105,-3.80192,136.103,-137.395,-199.669,-305.422,-0.130892,-0.0146484,-0.00244141,0.014801,0.0152588,0.197754,-0.0115967,0.0144958,0.0012207,-0.012207,0.0195312,-0.0764465,-0.0584412,0.0456238,-0.0166321,-0.0570679,-0.0369263,2.65686,2.63382,0.0038147,-0.0100708,-0.0411987,-0.0933838,-0.0268555,-0.0012207,0.09552,-0.0395203,0.0247192,-0.0340271,-3.17703,-3.18192,0.218066,0.470232,-0.422996,165.409,17.8612,13.3511,207.643,-1058.39,0.0770316,-0.0206757,-0.082283,0.021553,-0.0156403,0.00988007,0.0525665,-0.0894928,0.0731277,0.22541,0.182114,0.247269,0.186272,-0.158653,0.213013,-0.173035,0.202904,-0.0322723,0.00221252,0.00236511,0.0215149,-0.110207,-0.221672,0.142441,0.0363541,0.247231,-0.0678635,-0.0598145,-0.0933456,-0.159378,0.0574493,0.154991,-0.12764,0.0012207
660,3,-4.64509,15.8555,-133.664,-30073.7,-18350.7,-1285.21,65.6001,-79.3309,-0.394022,0.337927,0.123347,-0.112917,73.4657,111.078,-229.128,198.84,300.407,0.0558755,-0.0246561,0.146979,0.64555,173.488,171.502,-267.401,-199.669,-305.422,-0.130892,0.0164795,0.0241089,0.0152588,0.0323486,0.1474,-0.00442505,0.0259399,-0.0175476,-0.0167847,-0.0100708,-0.0820923,-0.0679016,0.040741,-0.00930786,-0.0558472,-0.0492859,2.65961,2.64267,0.00320435,0.0157166,-0.037384,-0.0593567,0.091095,0.0222778,0.100555,-0.0857544,-0.00869751,0.00991821,-3.19183,-3.19275,0.309406,0.117344,1.00774,75.1041,196.073,107.413,207.643,-1058.39,0.0770316,-0.0378418,-0.0660706,0.0305939,-0.0194931,0.0167847,0.0402451,-0.105286,0.0505829,0.232201,0.169296,0.247879,0.189018,-0.176315,0.176315,-0.17498,0.222855,-0.0270844,-0.0105286,-0.00911713,0.0449371,-0.0777817,-0.224419,0.124626,0.0323486,0.22316,-0.0539017,-0.0901413,-0.104446,-0.144081,0.0537491,0.161247,-0.12001,0.00335693
660,4,-3.28695,16.8229,-157.034,-34818.7,-21481.8,-1606.93,66.0971,-82.6048,-0.391674,-0.106373,0.742697,2.00745,73.7286,41.0292,-61.8485,198.84,300.407,0.0558755,0.242043,-0.294611,0.645854,-3.27798,-38.9543,-286.024,-199.669,-305.422,-0.130892,0.00198364,0.0430298,0.0320435,0.0143433,-0.0473022,-0.00701904,0.0205994,-0.00305176,-0.00701904,-0.0227356,-0.0534058,-0.0465393,0.03479,-0.0062561,-0.0654602,-0.0550842,2.64297,2.68234,-0.0186157,-0.0152588,0.00961304,-0.0639343,0.133514,0.00686646,0.0369263,-0.0997925,0.022583,-0.00518799,-3.15277,-3.16238,-0.0498791,0.204874,0.292892,-60.5427,17.8188,13.614,207.643,-1058.39,0.0770316,-0.0209045,-0.0606918,0.0255585,-0.0374222,0.00766754,0.0511169,-0.0696564,0.0270462,0.232086,0.199966,0.233955,0.189247,-0.144234,0.200157,-0.19558,0.221786,-0.0374603,0.00770569,0.0192642,-0.0038147,-0.0944519,-0.236282,0.155449,0.0601578,0.214882,-0.0849533,-0.08564,-0.108299,-0.164719,0.0533295,0.135727,-0.0632858,0.00427246
660,5,-2.01662,17.4367,-179.697,-40093.9,-24368.5,-1929.55,67.2879,-81.2146,-0.39059,-0.192177,0.387183,1.65401,249.764,41.938,-173.242,198.84,300.407,0.0558755,-0.201737,0.323207,-0.0640781,85.329,-3.75672,-360.325,-199.669,-305.422,-0.130892,0.0137329,0.0183105,0.00717163,-0.00427246,-0.140686,-0.010376,-0.0141907,0.0218201,-0.0132751,-0.0166321,-0.0421143,-0.0497437,0.0283813,0.00305176,-0.0686646,-0.0308228,2.66281,2.64984,-0.0157166,0.0157166,0.0497437,0.0149536,0.102081,0.020752,-0.0219727,-0.156708,-0.0205994,-0.00579834,-3.08273,-3.09311,0.0382186,-0.597324,-1.13602,-15.322,89.1189,51.1441,285.943,-1044.86,-0.0378588,-0.0298309,-0.0846863,-0.00797272,-0.0210571,-0.00175476,0.0341797,-0.0720596,0.0349808,0.24765,0.198364,0.227203,0.194473,-0.163879,0.191269,-0.181007,0.223122,-0.0448608,-0.00934601,-0.00694275,0.00881195,-0.054245,-0.230522,0.14801,0.0707626,0.228958,-0.07164,-0.0423813,-0.116463,-0.140343,0.0524521,0.143166,-0.0951385,-0.0012207
660,6,-1.72421,17.9586,-199.527,-44530.4,-27462.7,-2306.63,65.2592,-81.1557,-0.39363,-0.101442,0.0323533,0.240283,-13.7581,-29.5701,-247.736,198.84,300.407,0.0558755,0.417813,-0.0284729,1.71007,-3.41629,65.9837,-490.501,-199.669,-305.422,-0.130892,0.0119019,-0.00259399,0.010376,0.00930786,-0.0379944,-0.010376,-0.0292969,0.000610352,-0.0254822,-0.0161743,-0.0576782,-0.0553894,0.0212097,0.00839233,-0.0621033,-0.0350952,2.63794,2.64648,-0.017395,0.0518799,0.0337219,0.091095,0.0202942,0.0164795,-0.0143433,-0.176849,0.0100708,0.0228882,-2.98248,-3.01193,0.845015,-0.063411,-0.780341,-60.5275,53.4646,32.4053,207.643,-1058.39,0.0770316,-0.0445557,-0.0621033,0.0151443,-0.0276947,0.0133514,0.0326538,-0.0905991,0.046196,0.22049,0.196609,0.254631,0.188599,-0.15419,0.202408,-0.20092,0.212021,-0.0581741,-0.0197601,-0.00350952,0.0555038,-0.0782013,-0.222626,0.145111,0.05867,0.236435,-0.0835037,-0.0598145,-0.10479,-0.174179,0.0470352,0.145111,-0.0836182,0.0411987
660,7,-0.449285,17.7769,-222.543,-49146.4,-29992.9,-2479.64,68.1266,-83.4995,-0.388222,0.253513,-0.232666,-2.58716,-102.395,75.1292,-99.1414,227.885,340.007,0.065579,0.50612,0.148531,1.35533,-2.91681,-144.014,-453.261,-199.669,-305.422,-0.130892,0.019989,0.0112915,0.00305176,-0.0180054,-0.00320435,0.00900269,0.0131226,-0.00320435,-0.0180054,-0.0144958,-0.0630188,-0.0602722,0.0379944,-0.00656128,-0.0679016,-0.030365,2.66129,2.64816,0.00274658,-0.0088501,0.0366211,0.0849915,0.0244141,0.019989,-0.00244141,-0.200653,0.000762939,0.0427246,-2.92068,-2.95441,-0.40908,-0.151873,-0.421172,-60.6575,160.137,-62.0525,207.643,-1058.39,0.0770316,-0.0430298,-0.0862503,0.0257874,-0.031395,0.0164413,0.03685,-0.0980759,0.0456238,0.228043,0.172462,0.226669,0.190353,-0.155678,0.199966,-0.166817,0.206375,-0.0416183,-0.00724792,-0.0111008,0.0310516,-0.0493622,-0.239487,0.16304,0.0751114,0.227432,-0.068779,-0.0601196,-0.0749969,-0.136414,0.0514984,0.128403,-0.0947189,0.0280762
660,8,0.200242,16.7115,-238.831,-52968.9,-32519,-2558.47,66.7421,-82.5579,-0.39074,0.160925,0.122829,1.6543,-57.9592,5.24886,-210.604,198.84,300.407,0.0558755,0.683804,0.413624,-0.773042,130.169,-143.745,-639.038,-199.669,-305.422,-0.130892,0.0302124,0.0219727,-0.00823975,0.0221252,-0.102081,-0.0238037,0.0109863,-0.0201416,-0.0143433,-0.000762939,-0.06073,-0.0627136,0.0294495,-0.0161743,-0.0341797,-0.0585938,2.63977,2.63855,-0.0100708,0.0088501,0.0456238,0.105133,0.0376892,0.0286865,0.0408936,-0.233154,0.0315857,0.0434875,-2.87018,-2.85156,0.040613,-0.060417,1.00836,-150.881,-89.003,32.7611,207.643,-1058.39,0.0770316,-0.0475311,-0.0735855,0.0596619,-0.0207901,0.0413513,0.0486755,-0.110474,0.0114441,0.209732,0.199203,0.239067,0.193062,-0.136032,0.188293,-0.190659,0.21244,-0.0492859,0.0138092,0.0192642,0.0174713,-0.0780487,-0.225754,0.152969,0.0849533,0.239754,-0.0617599,-0.0440216,-0.0908661,-0.141449,0.0470734,0.164185,-0.0665665,0.00518799
660,9,1.3822,15.031,-253.702,-55780.5,-34475.1,-2598.89,67.0143,-84.479,-0.389391,0.33863,0.0345231,-0.466362,-13.8677,-29.5307,-80.474,198.84,300.407,0.0558755,0.421039,-0.471883,-1.83711,262.946,-73.3986,-601.81,-239.506,-448.325,-0.107996,0.0158691,0.00808716,0.00259399,-0.00396729,-0.0317383,0.00595093,0.0141907,-0.0213623,-0.0291443,0.0152588,-0.0730896,-0.0779724,0.0291443,-0.0184631,-0.0521851,-0.0679016,2.67929,2.65121,-0.000610352,0.0209045,0.0662231,0.116119,0.0611877,0.0242615,-0.0224304,-0.256653,-0.0219727,0.0215149,3.09174,3.08701,0.0380835,0.113519,-1.13727,75.0215,53.4569,13.3936,254.637,-1124.36,0.138433,-0.0283813,-0.0882721,0.00713348,-0.00240326,0.035553,0.0490189,-0.111694,-0.0118256,0.233345,0.177155,0.22747,0.19577,-0.158768,0.173721,-0.185013,0.219307,-0.0370026,-0.0255585,0.0289536,0.0326157,-0.0497437,-0.204277,0.1511,0.0655365,0.250015,-0.0795746,-0.0666046,-0.0873566,-0.136948,0.0580978,0.151291,-0.101242,-0.0180054
661,0,1.32166,13.3449,-266.804,-58506.4,-36042.2,-2248.75,67.8133,-85.0624,-0.387918,0.599583,0.391222,0.947592,117.808,6.25403,86.8664,198.84,300.407,0.0558755,0.242036,-0.206277,0.291093,85.8217,-143.843,-601.893,-199.669,-305.422,-0.130892,0.0395203,-0.00534058,-0.0132751,-0.00732422,0.35553,-0.0102234,0.0154114,-0.019989,-0.0256348,0.0177002,-0.0460815,-0.0437927,0.0358582,-0.0234985,-0.0654602,-0.0447083,2.66266,2.66495,0.000762939,0.0344849,0.0250244,0.0762939,0.101013,0.00106812,-0.0628662,-0.251312,0.00991821,0.0196838,3.24677,3.26843,-0.0494294,0.0277922,0.650758,-196.142,53.3728,-5.14487,207.643,-1058.39,0.0770316,-0.0339508,-0.0901413,0.034256,0.00087738,0.0400543,0.0457001,-0.091629,0.0351334,0.234871,0.191689,0.247459,0.201073,-0.167732,0.199089,-0.19928,0.210762,-0.0582886,-0.0181961,0.0227737,0.0343323,-0.0641251,-0.237579,0.154724,0.0613403,0.228119,-0.0865555,-0.0681305,-0.0899506,-0.147552,0.0532913,0.129585,-0.0873184,0.0128174
661,1,1.17521,10.4224,-277.426,-60615.6,-37465,-2027.97,67.8573,-85.8586,-0.387462,0.426089,0.0351568,0.240628,250.261,-63.1719,-80.293,198.84,300.407,0.0558755,0.41865,0.14773,-0.418381,218.936,-213.497,-546.034,-199.669,-305.422,-0.130892,0.0144958,0.00183105,-0.00259399,-0.00900269,0.278625,0.00869751,0.000915527,0.00198364,-0.0158691,-0.000457764,-0.0241089,-0.0616455,0.0146484,-0.0151062,-0.0309753,-0.0509644,2.65808,2.66556,-0.0175476,0.0515747,0.012207,-0.0553894,0.0845337,0.00686646,-0.0782776,-0.289459,0.0311279,0.030365,3.2637,3.2843,-0.499206,0.380613,-0.779558,-15.344,89.0857,32.2901,207.643,-1058.39,0.0770316,-0.0569534,-0.080719,0.0514221,-0.00762939,0.0590897,0.0397491,-0.0898361,0.0185013,0.229187,0.208931,0.233307,0.182724,-0.145607,0.191345,-0.181389,0.232697,-0.0614166,-0.0186157,-0.0236893,0.00125885,-0.0740051,-0.199509,0.182724,0.0968933,0.195961,-0.0735092,-0.0507736,-0.126915,-0.159302,-0.0101089,0.147247,-0.0735092,0.0125122
661,2,1.55413,7.23993,-283.09,-62284.9,-38779.5,-1564.78,65.9159,-84.3377,-0.391091,0.605226,-0.496521,-0.466063,-146.608,109.953,-43.4243,198.84,300.407,0.0558755,0.772146,0.148959,0.646027,85.7904,-108.871,-694.833,-199.669,-305.422,-0.130892,-0.00289917,-0.00137329,0.0180054,0.0088501,-0.0134277,-0.012207,-0.00717163,0.0154114,-0.0273132,0.0241089,-0.0497437,-0.0721741,0.0566101,0.0112915,-0.0523376,-0.055542,2.66495,2.65457,0.0308228,0.0289917,-0.125275,-0.0785828,0.0961304,0.0117493,-0.0750732,-0.262756,0.017395,0.0349426,3.28369,3.2547,-0.5866,-0.327101,1.00956,-15.3507,124.699,32.2274,207.643,-1058.39,0.0770316,-0.0379562,-0.0749207,0.0413132,-0.0323105,0.0344849,0.0496292,-0.0951004,0.00152588,0.214424,0.184555,0.264015,0.20504,-0.142708,0.193901,-0.184975,0.211449,-0.0563431,-0.0315475,-0.0200272,0.00240326,-0.0791168,-0.189629,0.164719,0.0704193,0.215569,-0.0838089,-0.0754929,-0.0912857,-0.158119,0.0102615,0.153999,-0.0574112,0.00976562
661,3,2.02191,3.79311,-288.045,-63647.7,-39668.9,-1138.55,65.1854,-83.3957,-0.392638,0.252578,-0.143759,-1.88024,73.1942,146.152,-99.0431,276.574,261.518,0.115966,1.12674,-0.292063,1.71058,129.691,66.2411,-713.45,-199.669,-305.422,-0.130892,0.0260925,-0.00473022,0.022583,0.00411987,-0.126495,-0.0167847,0.00747681,0.00366211,-0.032959,-0.00152588,-0.0697327,-0.0274658,0.0320435,-0.0256348,-0.0753784,-0.0538635,2.62451,2.66129,0.0172424,-0.00274658,-0.0946045,-0.100098,0.0575256,0.0160217,-0.0700378,-0.236359,-0.00976562,0.0221252,3.26385,3.23074,0.486646,-0.4189,-0.779298,165.465,-160.169,32.5183,207.643,-1058.39,0.0770316,-0.0231552,-0.0795364,0.0160599,-0.0249863,0.0305176,0.0474167,-0.0917435,0.0136948,0.224419,0.202179,0.240021,0.171051,-0.160332,0.206337,-0.179634,0.22007,-0.0714493,-0.032196,-0.0228882,0.0141907,-0.060463,-0.19371,0.166245,0.105209,0.236282,-0.0872803,-0.0902557,-0.135117,-0.179024,0.0215149,0.148048,-0.0610733,-0.0134277
661,4,1.34176,0.603975,-296.189,-64791.7,-40274.6,-563.322,66.9264,-85.6125,-0.388964,0.0725153,0.388252,0.240314,-190.065,4.59566,-6.25851,198.84,300.407,0.0558755,0.0658199,-0.207182,-1.12794,218.492,-3.52976,-676.202,-202.602,-498.753,-0.0693634,0.020752,-0.01297,-0.000610352,0.0108337,0.0473022,0.0205994,0.010376,0.0204468,-0.0375366,0.0292969,-0.0419617,-0.0540161,0.0382996,-0.0105286,-0.0340271,-0.0495911,2.65015,2.65503,0.0337219,0.01297,-0.0511169,-0.105743,0.035553,0.0125122,-0.0582886,-0.231476,0.00778198,0.0210571,3.14148,3.1636,-0.501685,0.287983,-2.92472,29.7925,-89.1017,-42.8651,177.205,-1068.59,0.130394,-0.0696182,-0.0683212,0.0215149,-0.0115585,0.0386047,0.0428772,-0.0892639,0.02285,0.250244,0.184441,0.232391,0.18116,-0.15728,0.188026,-0.175209,0.208015,-0.0519562,-0.0128555,0.00495911,0.00518799,-0.0852203,-0.19001,0.159836,0.114975,0.206032,-0.0897217,-0.0619507,-0.133781,-0.185394,0.0314713,0.156746,-0.0537491,-0.00244141
661,5,1.28336,-3.55308,-302.208,-66021.9,-41233.8,-136.858,66.4601,-85.9015,-0.389514,-0.365208,0.0309516,0.240111,-234.513,74.4804,123.789,198.84,300.407,0.0558755,0.152631,0.058969,0.645685,130.073,-73.7837,-769.161,-199.669,-305.422,-0.130892,0.014801,0.0131226,-0.0108337,0.00579834,0.0430298,0.00732422,-0.0038147,0.014801,-0.0498962,0.0198364,-0.0328064,-0.0578308,0.0419617,-0.00549316,-0.0650024,-0.0953674,2.63977,2.63779,0.0137329,0.0111389,-0.0140381,-0.152283,-0.0718689,-0.00350952,-0.0379944,-0.22522,0.0341797,0.0172424,3.0542,3.05557,-0.229131,0.382551,0.292788,75.0434,53.4901,32.2476,207.643,-1058.39,0.0770316,-0.0328445,-0.0843048,0.01091,-0.0139236,-3.8147e-05,0.0208664,-0.0911713,0.0119781,0.206146,0.199318,0.242004,0.212975,-0.164566,0.16037,-0.197792,0.220261,-0.0726318,-0.0296783,-0.0163651,-0.0172424,-0.0801086,-0.192566,0.129814,0.0971985,0.199699,-0.108986,-0.0648499,-0.112953,-0.20298,0.0304794,0.14122,-0.056076,-0.0088501
661,6,0.955289,-6.82791,-308.581,-67121.7,-41874.6,457.05,67.201,-86.853,-0.387946,0.774956,0.480897,0.947686,-57.3848,-134.866,49.6154,198.84,300.407,0.0558755,0.596575,0.0593721,-1.48244,218.775,-108.547,-713.339,-272.717,-452.678,-0.126482,0.00534058,0.0126648,0.00396729,0.0141907,0.00823975,-0.0152588,-0.0138855,0.0186157,-0.0392151,0.0302124,-0.0485229,-0.0631714,0.0294495,-0.0279236,-0.0436401,-0.0663757,2.66068,2.65518,0.00823975,0.0306702,0.0183105,-0.0708008,-0.125122,0.00305176,0.0190735,-0.261536,0.000152588,-0.00457764,2.94601,2.95303,0.217285,0.202408,-1.13763,-15.3456,-17.7854,13.6241,191.98,-1044.88,0.0714813,-0.0353622,-0.0664139,0.0082016,-0.0241852,-0.0141907,0.0236893,-0.104904,0.0261307,0.194626,0.176582,0.225258,0.173569,-0.168991,0.197525,-0.191803,0.222092,-0.0731659,-0.0256729,-0.0368118,-0.0234222,-0.0708771,-0.178337,0.191956,0.0939941,0.212822,-0.0845337,-0.0737,-0.14061,-0.204544,0.00785828,0.162354,-0.0653076,0.0137329
661,7,0.716837,-10.7202,-313.537,-68396.8,-42692.9,939.181,66.7362,-86.228,-0.388944,0.160445,0.300144,0.947326,72.2022,321.394,-6.16129,198.84,300.407,0.0558755,0.418232,0.0596289,0.645844,218.501,-38.4888,-546.091,-199.669,-305.422,-0.130892,-0.0117493,0.00152588,-0.0308228,-0.000305176,-0.0396729,0.0137329,-0.00137329,0.0138855,-0.0422668,0.0119019,-0.0465393,-0.0537109,0.0337219,-0.0120544,-0.0723267,-0.0602722,2.64404,2.65976,0.0262451,0.0106812,0.0392151,0.00991821,-0.262604,0.039978,-0.0415039,-0.276184,0.0152588,-0.01297,2.85721,2.87109,-0.140618,-0.419018,-0.778568,-196.016,196.056,126.582,207.643,-1058.39,0.0770316,-0.0403214,-0.0795746,0.0111771,-0.0210571,-0.00804901,0.023613,-0.10891,0.0408554,0.195961,0.201263,0.242996,0.178642,-0.164986,0.191154,-0.172844,0.220718,-0.0695038,-0.0385284,-0.0237274,0.0104904,-0.0883102,-0.182228,0.152969,0.114861,0.215225,-0.0946426,-0.100975,-0.112572,-0.190048,0.0316238,0.143013,-0.0774765,-0.0152588
661,8,0.391628,-14.9665,-318.493,-69275.1,-43544.3,1589.32,66.1814,-86.8687,-0.389452,0.516104,-0.0536997,-2.23356,-14.0296,5.50453,-117.652,201.316,306.722,0.0560108,0.683605,0.237073,0.291213,307.445,-143.292,-601.76,-199.669,-305.422,-0.130892,0.00946045,-0.0187683,-0.00366211,0.00579834,-0.0514221,0.057373,-0.00137329,0.0306702,-0.00473022,0.0143433,-0.0688171,-0.0544739,0.00640869,-0.01297,-0.0675964,-0.0726318,2.64984,2.65747,0.0202942,-0.0106812,0.0112915,0.0270081,-0.267792,-0.0114441,0.0564575,-0.307922,0.0312805,0.020752,2.73376,2.74963,-0.049896,0.293729,0.292736,75.0705,-88.9605,32.4982,207.643,-1058.39,0.0770316,-0.0263596,-0.076828,0.00934601,0.00152588,0.00774384,0.0167465,-0.0870514,0.0388718,0.178146,0.185623,0.232124,0.181694,-0.164299,0.177879,-0.192604,0.234375,-0.0709152,0.00709534,-0.0548553,0.0127792,-0.120354,-0.163841,0.206223,0.0885773,0.222359,-0.0481415,-0.078125,-0.128326,-0.176315,-0.0166702,0.14534,-0.04879,0.00946045
661,9,0.50568,-17.7977,-325.928,-70417.7,-44397.2,2053.07,66.6834,-88.3276,-0.38799,0.689615,0.125216,-0.112687,74.5867,-134.164,49.7017,198.84,300.407,0.0558755,0.773436,-0.0284058,-0.772844,351.444,-3.18719,-638.952,-199.669,-305.422,-0.130892,-0.00640869,-0.0241089,-0.00366211,0.00473022,0.0727844,0.0331116,-0.00411987,0.0184631,-0.0192261,0.0263977,-0.0439453,-0.0308228,0.0485229,-0.0102234,-0.0999451,-0.0598145,2.67899,2.63504,0.0794983,0.00976562,0.0152588,0.0772095,-0.159454,0.0311279,0.0970459,-0.293579,0.0238037,0.0289917,-1.93741,-1.4296,0.129671,0.649813,0.649455,120.22,124.724,32.0697,207.643,-1058.39,0.0770316,-0.0192261,-0.0753403,0.0122452,-0.00587463,-0.0135803,0.0220871,-0.0925827,0.0302124,0.20256,0.207596,0.247688,0.181618,-0.196991,0.185013,-0.172272,0.232162,-0.0601959,-0.00579834,-0.0415802,0.0349426,-0.0989532,-0.170135,0.176506,0.0596237,0.218544,-0.0553131,-0.0738525,-0.153618,-0.183487,-0.0152969,0.13298,-0.060463,-0.00701904
662,0,0.705526,-21.4216,-328.759,-71517.3,-45073.3,2609.79,65.7998,-86.8472,-0.390029,0.513068,0.213106,0.240643,-102.306,40.1203,49.5448,198.84,300.407,0.0558755,0.862225,-0.558305,1.00105,395.519,101.922,-657.545,-199.669,-305.422,-0.130892,0.0294495,0.0141907,0.00366211,0.0228882,0.0170898,0.042572,0.0205994,0.0318909,-0.0201416,0.0332642,-0.045166,-0.0405884,0.0453186,-0.000457764,-0.0680542,-0.0679016,2.64862,2.6593,0.0575256,0.00839233,0.0038147,0.0994873,-0.110779,0.0227356,0.1651,-0.317841,0.00427246,0.0259399,-3.19183,-3.17535,0.218617,-0.239981,-0.0641919,391.222,53.3173,-100.098,207.643,-1058.39,0.0770316,-0.0320435,-0.0583649,-0.00518799,-0.00709534,-0.0100708,0.0374222,-0.0901794,0.0382614,0.215302,0.223694,0.248909,0.179024,-0.164719,0.195808,-0.166397,0.236282,-0.0428009,-0.00827789,-0.0429153,0.000534058,-0.0990677,-0.148926,0.175858,0.092926,0.234337,-0.0315857,-0.0825119,-0.139542,-0.172806,-0.0161362,0.120239,-0.0787735,-0.0088501
662,1,0.471728,-25.4037,-336.548,-72571.9,-45855.2,2943.42,66.6498,-88.7503,-0.387832,0.601238,0.0363411,1.30114,-14.0905,5.52642,-24.7282,198.84,300.407,0.0558755,0.507191,0.0596166,-0.0635668,130.53,-248.804,-806.275,-199.669,-305.422,-0.130892,-0.00137329,0.00930786,0.00350952,0.0296021,-0.0285339,0.0234985,0.00686646,-0.0201416,-0.0228882,0.0154114,-0.0521851,-0.0700378,0.0354004,-0.01297,-0.0558472,-0.0842285,2.66144,2.65244,0.058136,0.00564575,0.0201416,0.133362,0.018158,0.0239563,0.0196838,-0.33371,0.0166321,0.0270081,-3.16681,-3.16879,-0.407,-0.148727,1.36659,-105.821,17.6776,-61.7493,207.643,-1058.39,0.0770316,-0.0329208,-0.0900269,0.018959,0.0043869,-0.0019455,-0.00434875,-0.098381,0.0120544,0.189095,0.187988,0.231514,0.193825,-0.169792,0.184212,-0.210304,0.232201,-0.0556564,-0.00984192,-0.047493,-0.0166702,-0.134697,-0.169678,0.174751,0.0925827,0.228119,-0.0485611,-0.0769424,-0.165443,-0.169067,-0.00366211,0.110207,-0.0658798,0.0128174
662,2,0.933941,-27.9664,-340.795,-73759,-46567.2,3258.23,66.2591,-87.9567,-0.388802,0.162092,0.0338383,0.593923,-14.4021,75.5924,-117.669,198.84,300.407,0.0558755,0.772798,-0.0280574,0.291353,307.11,31.6617,-769.09,-199.669,-305.422,-0.130892,-0.00274658,0.0276184,-0.00457764,0.0460815,0.0354004,0.00579834,0.0151062,0.00900269,-0.025177,-0.00289917,-0.057373,-0.0508118,0.0454712,-0.00259399,-0.0534058,-0.0694275,2.64786,2.64526,0.0178528,0.00320435,0.0288391,0.0686646,0.0665283,-0.000305176,-0.0256348,-0.234985,-0.00366211,0.00366211,-3.15903,-3.17398,-0.137791,0.0296627,1.72352,-15.4636,-89.2097,-99.3745,207.643,-1058.39,0.0770316,-0.0386047,-0.0693512,0.0337601,-0.0336456,0.0146866,0.0270844,-0.0905991,0.0249481,0.190353,0.198059,0.252533,0.199661,-0.172501,0.224686,-0.173149,0.240784,-0.0457382,-0.00419617,-0.0772858,-0.00679016,-0.0772095,-0.165176,0.186195,0.101357,0.219078,-0.0503159,-0.0861359,-0.159149,-0.175438,-0.0183105,0.14019,-0.0696945,0.0167847
662,3,0.956056,-31.0616,-345.043,-74724.6,-47525.1,3629.28,65.1652,-87.8252,-0.39049,0.0737153,-0.0550369,2.00775,-147.949,355.273,12.2712,198.84,300.407,0.0558755,0.24181,-0.0294934,-0.0636967,351.174,136.777,-769.098,-199.669,-305.422,-0.130892,0.00762939,0.0379944,0.0189209,0.0480652,-0.00991821,0.00747681,-0.0218201,0.0306702,-0.0149536,0.00259399,-0.0724792,-0.0500488,0.045166,0.0170898,-0.0828552,-0.0656128,2.65518,2.66678,0.0424194,0.0350952,0.0386047,-0.015564,0.100555,0.00869751,0.00350952,-0.151672,0.00915527,0.017395,-3.18558,-3.18146,0.12934,0.204907,0.292683,-15.462,17.6614,-80.7085,207.643,-1058.39,0.0770316,-0.0253677,-0.0756073,0.0272369,-0.0152206,-0.0118256,0.00999451,-0.0946045,0.0242233,0.196342,0.200005,0.247231,0.207787,-0.176849,0.206528,-0.196304,0.22522,-0.0508881,0.0139999,-0.0612259,0.0146103,-0.119362,-0.181961,0.171432,0.0550079,0.205498,-0.03685,-0.0754547,-0.15625,-0.170364,-0.00804901,0.158234,-0.0394058,0.0088501
662,4,1.15281,-33.3611,-350.354,-75516.3,-47952.7,3814.32,66.0326,-88.8493,-0.388699,0.0713489,0.477242,1.30069,-103.015,180.283,-6.24286,198.84,300.407,0.0558755,0.0660679,-0.648966,0.291132,307.251,-38.3233,-713.309,-199.669,-305.422,-0.130892,-0.0161743,0.0424194,0.014801,0.0117493,-0.110168,-0.0131226,0.0163269,-0.00701904,-0.00534058,-0.00823975,-0.070343,-0.0379944,0.0192261,-0.0294495,-0.0549316,-0.0520325,2.66312,2.65564,-0.00946045,0.0134277,0.0637817,-0.0608826,0.144196,0.0115967,-0.00778198,-0.104218,0.000305176,-0.00793457,-3.15048,-3.18649,-0.227383,-0.0592093,1.72378,-331.722,-17.9112,-23.7158,207.643,-1058.39,0.0770316,-0.0328064,-0.103569,0.0244904,-0.053978,0.0248718,0.00244141,-0.0941467,0.02388,0.199394,0.206718,0.256271,0.176163,-0.175781,0.221405,-0.175629,0.235748,-0.0595474,0.00125885,-0.0167084,0.00766754,-0.083313,-0.164566,0.19722,0.0778198,0.186272,-0.0686646,-0.0826645,-0.17746,-0.158653,-0.022316,0.140152,-0.0561905,-0.00610352
662,5,1.61149,-35.7462,-352.831,-76350.8,-48592.4,3906.4,65.1812,-87.9986,-0.390381,0.337009,0.0351059,2.00791,117.521,76.3113,-43.2433,198.84,300.407,0.0558755,1.21655,-0.292539,-0.417759,174.647,-178.673,-750.514,-199.669,-305.422,-0.130892,-0.00411987,0.0384521,0.00244141,0.00289917,0.260315,0.00289917,0.0163269,0.0144958,-0.0282288,0.00808716,-0.0765991,-0.0283813,0.042572,-0.00793457,-0.0379944,-0.0671387,2.63657,2.65198,-0.0650024,-0.0108337,0.0726318,-0.0775146,0.117188,-0.00762939,0.0434875,-0.0218201,0.0334167,-0.00335693,-3.10913,-3.10349,-0.140253,-0.151823,-0.421485,-196.156,124.598,-5.27018,207.643,-1058.39,0.0770316,-0.0306702,-0.102768,0.019989,-0.0217056,0.00183105,0.0364685,-0.0892639,0.0150681,0.196419,0.196877,0.260582,0.188599,-0.143776,0.22316,-0.177994,0.239487,-0.0595093,-0.0364304,-0.0636673,0.00988007,-0.107689,-0.104332,0.230751,0.102768,0.207138,-0.064888,-0.0518799,-0.263863,-0.201111,-0.0741577,0.15522,-0.0920868,0.00427246
662,6,1.89115,-36.6317,-359.204,-76877.7,-49089.2,4184.88,66.2416,-90.3722,-0.38764,0.775667,0.303498,1.3012,205.951,-28.3136,124.102,198.84,300.407,0.0558755,-0.0242308,0.146746,-0.0639139,130.008,-38.7943,-806.344,-199.669,-305.422,-0.130892,-0.0132751,0.0370789,-0.00686646,0.00808716,0.183563,-0.022583,0.0256348,0.00930786,-0.017395,0.00366211,-0.0576782,-0.0318909,0.0175476,0.00656128,-0.065155,-0.0541687,2.65259,2.64069,-0.0447083,-0.00183105,0.067749,-0.0917053,-0.0390625,0.00579834,-0.00183105,0.0271606,-0.0265503,0.00686646,-3.02948,-3.00507,-0.31919,0.559616,-0.0649731,-15.3017,-17.719,51.332,207.643,-1058.39,0.0770316,-0.0400543,-0.0842285,0.0134277,-0.0357056,0.00751495,0.0233078,-0.0944138,0.0190353,0.20153,0.214729,0.238533,0.195656,-0.170593,0.212708,-0.176697,0.237617,-0.0776672,-0.0212097,-0.0413132,0.0124741,-0.137444,-0.0938797,0.208778,0.112114,0.219345,-0.0596237,-0.0793076,-0.274544,-0.202332,-0.0449753,0.131645,-0.0970459,-0.000610352
662,7,1.99287,-38.4883,-361.682,-77889,-49659.2,4276.66,65.6022,-89.0434,-0.389242,0.51167,0.30218,1.65449,205.663,41.7436,-6.00799,198.84,300.407,0.0558755,0.332945,-0.649003,-1.8371,396.02,-73.1229,-769.002,-239.327,-520.691,-0.0841995,-0.00762939,0.0245667,0.012207,-0.01297,0.114594,-0.0273132,0.0177002,-0.00793457,-0.0154114,0.0209045,-0.039978,-0.0401306,0.0233459,-0.0300598,-0.055542,-0.0515747,2.64679,2.64465,-0.0236511,0.0189209,0.0448608,-0.0726318,-0.0834656,0.0196838,-0.0190735,0.0500488,-0.0361633,-0.00976562,-2.94708,-2.96646,0.218566,0.0265844,-0.0646608,-60.4211,-160.112,89.3432,207.643,-1058.39,0.0770316,-0.0426483,-0.101509,0.00705719,-0.03685,0.0285339,0.0174713,-0.0901031,0.0203705,0.230255,0.215149,0.248451,0.180321,-0.178185,0.212784,-0.18856,0.239868,-0.0616455,-0.0166321,-0.0405121,0.00919342,-0.0814056,-0.0710297,0.224609,0.0668716,0.237808,-0.057373,-0.065155,-0.275497,-0.237007,-0.0650787,0.12104,-0.0854111,0.0131226
662,8,1.91416,-39.2861,-365.577,-78283.7,-50049.5,4239.07,65.9973,-90.2578,-0.388059,0.25094,0.0339726,-0.819886,-101.387,-135.095,68.1714,198.84,300.407,0.0558755,0.24115,0.235857,-0.063784,85.6388,-38.8801,-732.028,-199.669,-305.422,-0.130892,0.00137329,0.0100708,0.00640869,0.0270081,0.0149536,-0.00183105,-0.00915527,-0.0164795,-0.0471497,0.00595093,-0.0614929,-0.0546265,0.00839233,-0.0276184,-0.0737,-0.0730896,2.65854,2.64374,0.00671387,0.0213623,0.0480652,-0.0631714,-0.0421143,0.020752,0.0152588,0.0947571,0.000457764,0.0177002,-2.89062,-2.88666,-0.0502275,-0.151177,-0.0640354,-15.3607,-53.4312,-5.16725,207.643,-1058.39,0.0770316,-0.0533676,-0.0776672,0.00179291,-0.0387192,0.0124359,0.0378036,-0.113754,0.0140381,0.196877,0.191422,0.223122,0.182228,-0.198975,0.223656,-0.209808,0.223885,-0.0686646,-0.021019,-0.0487518,0.0212097,-0.126953,-0.0875473,0.22007,0.0895309,0.205803,-0.0495911,-0.0928497,-0.302696,-0.187073,-0.0679779,0.126801,-0.0977707,0.0241089
662,9,2.62618,-39.4601,-367.346,-79075.4,-50441.9,4349.69,65.5891,-89.135,-0.389217,0.0750964,0.0330381,-0.820001,-146.507,74.9392,86.6771,198.84,300.407,0.0558755,0.152411,0.147419,0.645656,307.349,-73.331,-731.884,-199.669,-305.422,-0.130892,0.0180054,0.00213623,-0.0146484,0.0198364,0.0343323,-0.00152588,0.00976562,-0.0143433,-0.0212097,0.0274658,-0.0520325,-0.0550842,0.018158,-0.00823975,-0.0564575,-0.0509644,2.61063,2.66617,0.0152588,-0.0184631,0.0579834,-0.0157166,0.0341797,-0.00228882,0.0291443,0.135193,-0.012207,-0.0233459,3.07266,3.05115,0.307793,-0.151738,-0.422006,120.085,-89.2174,-118.386,207.643,-1058.39,0.0770316,-0.0643539,-0.0949097,0.0233078,-0.018692,-0.00507355,0.0511932,-0.0839615,0.0391006,0.233421,0.218658,0.271301,0.174713,-0.1931,0.211716,-0.204926,0.252037,-0.0453186,-0.028801,-0.0498962,-0.00488281,-0.139198,-0.08358,0.233498,0.0878143,0.227127,-0.0520706,-0.102386,-0.265121,-0.211983,-0.0657272,0.134392,-0.109367,0.0128174
663,0,2.89833,-39.902,-370.179,-79471.9,-50479.2,4256.11,66.539,-89.7107,-0.387524,0.337464,0.123514,0.594017,118.452,-98.9084,-43.2015,198.84,300.407,0.0558755,0.417161,0.148543,2.06474,85.1483,136.159,-639.157,-199.669,-305.422,-0.130892,0.0190735,0.0128174,0.0416565,0.0218201,0.035553,-0.0125122,0.00473022,-0.00823975,-0.0442505,0.0192261,-0.0497437,-0.0468445,0.0340271,-0.00289917,-0.0288391,-0.0733948,2.64236,2.62924,0.019989,-0.000915527,0.0405884,0.0154114,-0.0299072,0.00366211,-0.0386047,0.263672,0.0119019,0.0317383,3.29376,3.28857,-0.319988,0.380647,-0.779767,210.584,-17.7761,-5.49284,207.643,-1058.39,0.0770316,-0.00953674,-0.0772095,0.0354767,-0.026207,-0.0461197,0.0524521,-0.0948334,0.0369263,0.21965,0.230713,0.26886,0.177803,-0.176544,0.222511,-0.175171,0.245361,-0.053978,0.0109482,-0.0278854,0.00339508,-0.105286,-0.0933838,0.19268,0.0957489,0.201569,-0.0407028,-0.0811386,-0.288315,-0.199852,-0.0404739,0.143509,-0.0977707,-0.0411987
663,1,2.81285,-39.9917,-371.949,-79514.4,-50761.9,4181.79,66.4283,-90.6179,-0.387242,0.0715805,0.477159,0.947226,205.554,41.783,161.254,198.84,300.407,0.0558755,0.863948,-0.824235,-0.772529,484.344,67.0918,-806.166,-199.669,-305.422,-0.130892,0.025177,0.0332642,0.0187683,0.0302124,-0.164185,-0.0115967,0.0297546,0.00427246,-0.0260925,0.0189209,-0.091095,-0.0505066,0.0247192,-0.0233459,-0.0431824,-0.0621033,2.62955,2.66373,-0.0114441,0.00549316,0.0506592,0.0390625,-0.0216675,-0.00686646,-0.0572205,0.259399,-0.0253296,0.019989,3.27911,3.2901,-0.318673,0.0271125,0.293517,-196.129,-17.8525,-5.01956,207.643,-1058.39,0.0770316,-0.0185394,-0.0827026,0.0204086,-0.0426483,-0.0122833,0.0641632,-0.0927734,0.0443649,0.185814,0.210762,0.268707,0.185242,-0.187073,0.232506,-0.167007,0.253487,-0.0505066,0.00549316,-0.0497437,0.0297165,-0.120926,-0.122147,0.218353,0.0818253,0.191269,-0.0150681,-0.0835419,-0.283775,-0.211601,-0.0688934,0.136223,-0.110168,0.0088501
663,2,3.25828,-39.9903,-373.719,-80305.2,-51225,3920.43,65.836,-89.5135,-0.388664,0.690798,-0.140923,0.240843,29.6651,40.8216,49.6311,198.84,300.407,0.0558755,0.507616,0.0593844,-0.773032,263.243,-143.469,-806.23,-199.669,-305.422,-0.130892,0.0161743,0.0300598,0.00762939,0.0273132,-0.280457,0.00686646,0.00839233,0.00305176,-0.0186157,0.0144958,-0.059967,-0.0463867,0.0183105,-0.0325012,-0.0500488,-0.0878906,2.66571,2.63214,0.0164795,0.00854492,0.01297,0.0413513,-0.0198364,0.0392151,-0.0744629,0.25238,0.00228882,0.0427246,3.28339,3.30017,-0.588433,0.558936,-0.422214,-60.465,-160.178,51.6352,207.643,-1058.39,0.0770316,-0.0437164,-0.0965881,0.0449753,-0.0373459,-0.034523,0.0405121,-0.112419,0.0415039,0.212555,0.217056,0.257454,0.168877,-0.194283,0.205688,-0.199089,0.233269,-0.0642014,0.0162506,-0.0939941,-0.0297165,-0.349159,-0.0773621,0.158501,0.0954056,0.260086,-0.0760651,-0.121078,-0.463409,-0.348129,-0.115089,0.178642,-0.240135,-0.00305176
663,3,3.96781,-38.7519,-378.677,-80788.4,-51545.3,3808.27,66.7849,-91.0499,-0.3865,1.1283,0.127886,1.30147,-235.719,319.753,-24.9474,198.84,300.407,0.0558755,0.686413,-0.29444,-2.19174,85.9888,-143.934,-880.679,-265.193,-344.405,-0.157414,0.00762939,0.00732422,0.0180054,0.0387573,-0.274353,0.0430298,-0.0183105,0.012207,-0.0325012,0.0270081,-0.0631714,-0.0291443,0.0430298,-0.0146484,-0.0788879,-0.065155,2.63718,2.64069,0.00350952,0.0187683,0.00228882,0.052948,-0.0271606,-0.0144958,-0.0204468,0.322418,0.0234985,0.0262451,3.26187,3.28247,0.0405623,0.206149,1.00789,120.203,-17.7931,-5.38766,207.643,-1058.39,0.0770316,-0.043869,-0.0547791,0.0201797,-0.0307465,-0.0234985,0.0196075,-0.08358,0.0650787,0.197105,0.231133,0.271759,0.18589,-0.183754,0.208321,-0.191994,0.23922,-0.0576019,0.0142288,-0.102043,0.0191498,-0.355644,-0.0370407,0.159264,0.0914001,0.258675,-0.0968552,-0.102806,-0.42469,-0.354385,-0.139351,0.187073,-0.252647,-0.0146484
663,4,3.96952,-37.9584,-382.572,-81446.5,-52113.6,3584.36,66.6855,-91.5008,-0.386426,0.335818,0.38982,0.94742,73.8174,6.02025,86.8376,198.84,300.407,0.0558755,0.242455,-0.118175,-0.773133,85.0502,171.166,-620.583,-199.669,-305.422,-0.130892,-0.00762939,0.00106812,0.00991821,0.0166321,-0.198669,0.045166,0.00686646,0.0268555,-0.0131226,0.0154114,-0.0532532,-0.0370789,0.0325012,-0.00793457,-0.0697327,-0.0697327,2.66434,2.6564,0.0279236,0.0559998,-0.00411987,0.0231934,0.040741,-0.0357056,0.0186157,0.367584,0.0102234,0.0222778,3.15628,3.16971,0.666213,-0.0628156,-0.42258,29.7857,-53.4891,-42.9278,207.643,-1058.39,0.0770316,-0.0395584,-0.0911713,0.0252914,-0.0392151,-0.018692,0.0521851,-0.093689,0.0658035,0.199966,0.239601,0.257339,0.169411,-0.185318,0.20607,-0.175743,0.223846,-0.0616074,0.0228119,-0.092926,0.0276947,-0.337448,-0.0305939,0.150528,0.0794601,0.232277,-0.0553513,-0.148811,-0.452194,-0.365334,-0.127678,0.206337,-0.242462,-0.00396729
663,5,4.22941,-36.72,-382.927,-81577.2,-52396.8,3491.3,66.0723,-91.3561,-0.387407,0.428173,0.0344076,-2.94057,338.356,-97.722,31.2812,165.608,185.346,0.0612027,0.416481,0.678894,1.00037,396.424,-213.16,-861.885,-199.669,-305.422,-0.130892,-0.0088501,0.0202942,0.0144958,0.000305176,-0.0704956,0.0279236,-0.00259399,-0.00106812,-0.0308228,0.015564,-0.0471497,-0.042572,0.0273132,-0.0186157,-0.0595093,-0.0842285,2.64343,2.64938,0.0482178,0.0604248,0.0209045,-0.00289917,0.0410461,-0.0144958,-0.0198364,0.414429,0.0105286,0.0317383,3.05206,3.06595,-0.499071,-0.33023,-0.778308,210.628,-17.7097,32.2151,207.643,-1058.39,0.0770316,-0.0394821,-0.0883102,0.0196457,-0.0367737,-0.0356674,0.0453186,-0.102997,0.0440979,0.232086,0.228958,0.275078,0.18013,-0.183258,0.215034,-0.195847,0.248795,-0.0658417,0.021286,-0.0610352,0.0146866,-0.343361,-0.0508499,0.125389,0.0769806,0.24601,-0.0820923,-0.113945,-0.4142,-0.353279,-0.112991,0.177803,-0.258064,0.015564
663,6,4.31773,-35.7489,-386.114,-82280.8,-52682.9,3285.79,66.4609,-91.2912,-0.386862,0.77824,0.0368594,-0.466075,339.821,-378.065,68.5177,198.84,300.407,0.0558755,0.683825,0.148622,0.291242,262.817,-3.41962,-676.176,-199.669,-305.422,-0.130892,0.0186157,0.0111389,0.0125122,0.0260925,0.119934,-0.000610352,0.0228882,-0.0340271,-0.0140381,0.0384521,-0.0730896,-0.0608826,0.0476074,-0.000457764,-0.065918,-0.100861,2.64099,2.66068,-0.0062561,-0.00473022,0.0473022,-0.0276184,0.124512,-0.00518799,-0.0430298,0.446472,0.0257874,0.0189209,2.95517,2.95563,-0.229929,0.203582,-0.422006,74.9844,17.7779,-24.2517,207.643,-1058.39,0.0770316,-0.0545883,-0.0764084,0.0346375,-0.0182343,-0.0222397,0.0187302,-0.0986481,0.0559235,0.190468,0.247269,0.270996,0.194626,-0.216103,0.25444,-0.170708,0.22274,-0.0597,0.0176239,-0.111313,-0.00286102,-0.359955,-0.0452805,0.160484,0.0621033,0.266914,-0.0485992,-0.121689,-0.451889,-0.337448,-0.121498,0.203094,-0.205841,-0.0146484
663,7,4.93667,-34.4221,-390.009,-83159.9,-53111.2,2987.08,66.7259,-91.1642,-0.386532,-0.277294,0.119993,-0.466786,74.2751,-64.0983,-43.2386,198.84,300.407,0.0558755,0.417594,0.0599773,1.71004,263.046,-73.4533,-769.082,-199.669,-305.422,-0.130892,-0.00167847,0.00549316,0.00411987,0.0244141,0.197144,-0.0262451,0.0135803,-0.0311279,-0.0212097,0.0337219,-0.0686646,-0.0434875,0.0378418,-0.0141907,-0.0688171,-0.108643,2.65182,2.64557,0.0158691,0.0126648,0.0816345,-0.0309753,-0.13916,0.00442505,-0.0389099,0.526123,0.000305176,-0.00198364,2.82272,2.84821,-0.230278,-0.152469,-0.778933,210.571,53.4492,-5.61814,207.643,-1058.39,0.0770316,-0.0515747,-0.0684357,0.0466156,-0.0418854,-0.00240326,0.0114822,-0.0881958,0.0345612,0.196495,0.260429,0.280533,0.196953,-0.221672,0.253258,-0.186539,0.234718,-0.0513077,0.0025177,-0.133476,0.00144958,-0.366364,-0.0239944,0.162125,0.0864029,0.276756,-0.0965118,-0.134544,-0.448456,-0.341454,-0.110474,0.214462,-0.254517,-0.0274658
663,8,4.93553,-33.2747,-393.197,-83554.2,-53536.9,2763.5,66.747,-91.8887,-0.386144,0.952446,0.215526,0.594398,-147.265,215.12,105.228,198.84,300.407,0.0558755,0.685349,-0.293859,-0.418077,218.602,-38.5436,-713.362,-199.669,-305.422,-0.130892,0.0143433,0.0187683,0.00457764,-0.00808716,0.0471497,-0.0227356,0.00198364,-0.030365,-0.0288391,0.0253296,-0.0688171,-0.0799561,0.0447083,0.00244141,-0.0662231,-0.0967407,2.63382,2.63977,0.00213623,-0.0408936,0.0593567,-0.0180054,-0.167236,0.0430298,0.0219727,0.607452,-0.00549316,0.0221252,2.74933,2.77679,-0.229463,-0.0623549,-0.0639832,29.838,17.8358,13.5088,207.643,-1058.39,0.0770316,-0.0543213,-0.0696564,0.0370026,-0.019989,-0.0281906,-0.00896454,-0.107422,0.0443649,0.189247,0.252724,0.278397,0.193329,-0.208817,0.24147,-0.15564,0.233803,-0.03582,0.0131607,-0.122681,0.00793457,-0.357437,-0.0611877,0.157471,0.0717163,0.279846,-0.0779343,-0.138779,-0.425911,-0.339699,-0.115166,0.177193,-0.236969,0.0131226
663,9,5.11053,-32.038,-396.03,-84257.8,-53823,2557.98,66.9988,-91.6311,-0.385897,0.336289,0.301079,0.947441,73.2465,111.156,105.397,198.84,300.407,0.0558755,0.507432,-0.293835,1.00075,85.835,-108.896,-769.176,-199.669,-305.422,-0.130892,0.000152588,0.00732422,-0.000305176,-0.0216675,-0.0598145,-0.0132751,-0.00137329,-0.012207,-0.00839233,0.0360107,-0.0512695,-0.058136,0.0752258,-0.000457764,-0.0735474,-0.10788,2.65167,2.66922,0.0260925,-0.0109863,0.110779,0.0178528,-0.063324,0.0234985,0.0572205,0.704651,0.0140381,0.0352478,-1.9133,-1.44165,0.217768,-0.152384,-0.779455,29.7789,-17.8764,-42.9905,207.643,-1058.39,0.0770316,-0.0622559,-0.0693893,0.00675201,-0.0149536,-0.0442123,0.0127029,-0.0963593,0.0781631,0.188751,0.257416,0.295792,0.197525,-0.218124,0.239296,-0.192833,0.214272,-0.0730896,0.0100327,-0.166969,-0.00553131,-0.545692,-0.112762,0.198212,0.0636673,0.272102,-0.13176,-0.240288,-0.484962,-0.451736,-0.248146,0.361328,-0.287132,-0.0119019
664,0,5.28569,-31.2424,-397.447,-84695.4,-54390.3,2315.8,66.0563,-91.2873,-0.387465,-0.103817,0.653207,-1.17373,29.9766,-29.2443,142.571,173.89,274.783,0.0455644,0.508268,-0.117632,-1.12771,263.089,-108.431,-694.727,-295.59,-538.278,-0.112174,0.0202942,0.00259399,-0.0390625,-0.0328064,0.014801,0.00839233,0.00106812,0.035553,-0.0271606,0.0326538,-0.0524902,-0.0794983,0.0547791,0.00106812,-0.0836182,-0.0842285,2.66327,2.65549,0.014801,-0.0114441,0.0588989,0.0616455,0.0119019,-0.00213623,0.0836182,0.829468,0.00549316,0.0135803,-3.16788,-3.18314,0.129705,0.472103,0.649768,-376.914,-124.791,-42.3292,207.643,-1058.39,0.0770316,-0.0761032,-0.0805664,0.0467682,-0.0315857,-0.00701904,0.0388336,-0.0795364,0.0305176,0.219841,0.258217,0.28904,0.215874,-0.228996,0.254898,-0.165215,0.258522,-0.0858307,-0.0111389,-0.152893,0.0172424,-0.547905,-0.13813,0.167618,0.0476456,0.272064,-0.136185,-0.20359,-0.487251,-0.452309,-0.243645,0.343513,-0.302925,0.017395
664,1,5.63812,-29.6519,-401.697,-85135.8,-54427.9,2091.96,67.4104,-92.4443,-0.384886,1.21972,-0.138619,-1.87961,-13.8312,-29.5438,-136.228,183.146,307.81,0.0438494,-0.0235644,-0.206937,0.290934,263.035,-73.4473,-750.496,-199.669,-305.422,-0.130892,0.00457764,0.0123596,-0.00701904,-0.0224304,0.108643,0.00839233,0.00518799,0.00473022,-0.00396729,0.0306702,-0.0598145,-0.0621033,0.0598145,-0.0256348,-0.0572205,-0.100708,2.66876,2.6741,0.038147,-0.00976562,0.100403,0.0395203,0.421295,0.0656128,0.171356,0.844421,0.0296021,0.0578308,-3.16635,-3.1723,-0.0494463,0.116648,0.650602,165.428,-195.848,-5.12698,207.643,-1058.39,0.0770316,-0.0666428,-0.0833511,0.0663757,-0.035553,-0.00190735,-0.00148773,-0.100021,0.0415039,0.179291,0.246582,0.296783,0.17868,-0.226021,0.250816,-0.186462,0.208549,-0.08255,0.00434875,-0.155067,-0.0177383,-0.534897,-0.15522,0.162964,0.0384903,0.280457,-0.11898,-0.211563,-0.473518,-0.420227,-0.222397,0.350456,-0.296555,0.020752
664,2,6.17106,-29.6497,-402.758,-85706.9,-54783.9,1961.08,66.884,-91.5848,-0.38609,0.510942,0.656728,-0.112929,29.3692,75.905,216.885,198.84,300.407,0.0558755,0.417374,0.148427,1.71001,129.604,101.243,-713.462,-199.669,-305.422,-0.130892,-0.000457764,0.00610352,-0.0209045,-0.0205994,-0.0621033,0.0222778,0.00762939,-0.000457764,-0.0106812,0.0436401,-0.0509644,-0.0822449,0.0492859,-0.00167847,-0.0509644,-0.0991821,2.64191,2.63809,0.0233459,0.00610352,0.0971985,0.0741577,0.457153,0.0839233,0.108948,0.784302,0.00686646,0.0292969,-3.18115,-3.16193,0.219449,-0.238723,0.650914,-60.6236,-17.9266,-61.7393,207.643,-1058.39,0.0770316,-0.0511932,-0.0778198,0.0593567,-0.0320816,-0.00572205,0.0323105,-0.0970459,0.0585175,0.194588,0.258865,0.288467,0.20916,-0.213814,0.243492,-0.183601,0.20443,-0.0949478,0.00328064,-0.163841,-0.00988007,-0.523796,-0.171432,0.17395,0.0764847,0.277786,-0.14576,-0.220413,-0.469551,-0.426102,-0.236664,0.350761,-0.269585,-0.0241089
664,3,6.52793,-29.0312,-406.653,-85926.1,-54961.7,1756.23,67.7501,-93.0831,-0.384068,0.337216,0.300746,-0.466426,-58.3037,40.3497,30.9888,198.84,300.407,0.0558755,0.240945,0.147639,0.645709,351.196,136.765,-806.269,-199.669,-305.422,-0.130892,0.0149536,-0.000915527,-0.00595093,-0.0167847,0.070343,0.0411987,0.00244141,-0.00961304,-0.0178528,0.04776,-0.0956726,-0.0770569,0.0297546,-0.0210571,-0.0456238,-0.101929,2.63062,2.6268,0.0164795,-0.00640869,0.0666809,0.0695801,0.340576,0.0712585,0.0930786,0.793915,0.035553,0.0306702,-3.19382,-3.19061,-0.140303,0.114743,-0.421954,-60.5798,-17.8602,-24.0313,207.643,-1058.39,0.0770316,-0.0564957,-0.0864792,0.0598526,-0.0250626,-0.0140381,-0.00415802,-0.0970459,0.0577545,0.200386,0.240479,0.287514,0.187416,-0.225029,0.245171,-0.17128,0.23613,-0.0918579,0.0176239,-0.133514,-0.0260544,-0.53318,-0.136147,0.185432,0.0374222,0.273247,-0.147362,-0.210571,-0.499954,-0.412445,-0.26371,0.340691,-0.261307,-0.00549316
664,4,6.35065,-28.5909,-408.07,-86321.6,-55175.6,1588.35,67.6952,-92.8469,-0.384265,0.600295,0.213823,1.3011,250.103,-63.115,161.308,198.84,300.407,0.0558755,0.418437,0.147846,-0.0636489,218.222,136.434,-806.349,-199.669,-305.422,-0.130892,0.00991821,-0.00335693,-0.0224304,0.0239563,0.288239,0.0271606,0.0210571,0.00946045,-0.0248718,0.0389099,-0.058136,-0.0556946,0.0369263,-0.0151062,-0.0724792,-0.0900269,2.67242,2.65839,0.00152588,0.0135803,0.01297,0.035553,0.177155,0.0494385,0.0640869,0.771637,0.00152588,0.00137329,-3.16223,-3.18375,-0.588298,-0.151907,-0.420963,-60.4801,-195.824,32.8439,207.643,-1058.39,0.0770316,-0.073967,-0.0680923,0.0816727,-0.0224304,0.00137329,0.0168991,-0.0806427,0.0582123,0.197372,0.277863,0.274849,0.179062,-0.236244,0.236435,-0.15831,0.251465,-0.0948334,0.0171661,-0.171471,-0.00350952,-0.547714,-0.151367,0.197372,0.045929,0.297127,-0.142593,-0.21492,-0.485878,-0.43438,-0.24456,0.359764,-0.289307,-0.0164795
664,5,7.41308,-28.3207,-408.777,-86717.6,-55283.6,1476.21,67.6654,-92.2441,-0.384606,0.865021,-0.139406,2.71523,-58.255,40.3322,-43.35,198.84,300.407,0.0558755,0.950964,-0.469867,0.291604,129.801,31.2273,-750.61,-199.669,-305.422,-0.130892,-0.00656128,0.018158,-0.000457764,-0.0152588,0.214691,0.0326538,0.0088501,0.0294495,-0.032959,0.0160217,-0.0863647,-0.0743103,0.0340271,-0.0141907,-0.0447083,-0.0802612,2.63626,2.65488,0.00350952,0.00640869,-0.000762939,-0.0436401,-0.127411,0.0450134,0.0338745,0.712585,-0.000610352,0.0123596,-3.08823,-3.0751,-0.76918,-0.154457,-1.85097,-196.169,-267.274,-79.9969,63.4133,-952.525,0.0585452,-0.0672531,-0.0790024,0.0608063,0.00141144,-0.0239563,0.0312424,-0.102844,0.0416946,0.185356,0.259895,0.297012,0.176506,-0.215378,0.248146,-0.171051,0.243988,-0.080986,0.0205994,-0.151863,-0.0232315,-0.528641,-0.144806,0.174675,0.0344467,0.283966,-0.102425,-0.222435,-0.482903,-0.415077,-0.224953,0.327263,-0.291786,0.00213623
664,6,8.38951,-28.14,-410.9,-87024.4,-55603,1327.1,67.5876,-92.5938,-0.384549,0.424923,0.124148,1.30101,115.759,391.738,86.7743,198.84,300.407,0.0558755,0.330995,-0.206289,-0.418318,307.025,101.616,-917.798,-199.669,-305.422,-0.130892,-0.01297,-0.00396729,-0.00717163,-0.022583,0.110931,0.0309753,0.00488281,0.0491333,-0.0221252,0.0248718,-0.0715637,-0.0892639,0.038147,0.0164795,-0.0595093,-0.0984192,2.64496,2.65213,0.0192261,0.0375366,0.0367737,-0.0358582,0.0317383,0.0195312,-0.043335,0.675659,0.00320435,0.00793457,-3.02307,-3.04855,0.041428,0.0296964,1.72331,-196.181,-89.1774,-61.4562,207.643,-1058.39,0.0770316,-0.0560379,-0.0847626,0.065918,-0.0220871,-0.0241852,0.0403595,-0.0891876,0.0557327,0.201912,0.245209,0.274429,0.185356,-0.198212,0.244713,-0.186844,0.242538,-0.148849,0.0207138,-0.21965,-0.115471,-0.701904,-0.296555,0.26001,0.0199127,0.383606,-0.207062,-0.588112,-0.285339,-0.212936,-0.716248,0.679283,-0.286255,0.00396729
664,7,9.01132,-28.4022,-411.253,-87199.4,-55851,1308.36,67.1011,-92.3505,-0.385391,0.600758,0.213657,0.594168,-57.98,-29.7207,105.344,198.84,300.407,0.0558755,0.50785,-0.205733,-0.0634796,129.921,-3.79261,-806.356,-199.669,-305.422,-0.130892,0.015564,-0.00656128,0.0239563,0.00244141,0.0933838,0.0418091,0.0166321,-0.00991821,-0.0137329,0.0723267,-0.0823975,-0.0759888,0.0222778,-0.0210571,-0.0491333,-0.0938416,2.67258,2.66159,0.0154114,0.022583,0.0361633,-0.0270081,0.106659,-0.0178528,-0.0643921,0.646973,0.0244141,0.0117493,-2.96616,-2.97302,0.130239,-0.149256,1.00842,391.339,17.8705,-5.76583,207.643,-1058.39,0.0770316,-0.0620651,-0.0717926,0.0621796,-0.0170135,-0.00335693,0.0163651,-0.109406,0.0777435,0.205498,0.252457,0.294952,0.178642,-0.216942,0.253639,-0.183716,0.247231,-0.133781,0.0259018,-0.206184,-0.142479,-0.732689,-0.281105,0.306435,0.0238037,0.39444,-0.211258,-0.551338,-0.282211,-0.206566,-0.729637,0.672302,-0.291862,0.00854492
664,8,9.37143,-28.9316,-413.377,-87463.2,-55958.3,1196.42,67.5396,-92.8016,-0.384519,0.0741701,0.0333711,0.593865,-145.799,-65.2234,142.465,198.84,300.407,0.0558755,0.242015,0.0587245,-0.773191,129.856,31.1969,-843.539,-199.669,-305.422,-0.130892,-0.00152588,0.0115967,-0.0038147,0.0115967,0.00839233,0.0213623,0.0305176,-0.01297,-0.00579834,0.0398254,-0.0686646,-0.0674438,0.0372314,-0.00778198,-0.0532532,-0.0961304,2.66602,2.66434,0.0132751,0.0296021,0.0485229,-0.00518799,0.132294,-0.057373,-0.0656128,0.542145,0.0154114,0.00518799,-2.86697,-2.90024,0.0385333,-0.0635626,-0.779402,-15.3675,-17.8186,-5.22991,207.643,-1058.39,0.0770316,-0.0547791,-0.0844955,0.0724411,-0.0234604,-0.0182343,0.0265884,-0.0944138,0.0547409,0.19825,0.255737,0.277939,0.196648,-0.2285,0.24662,-0.186462,0.227165,-0.0988007,0.00995636,-0.198593,-0.114937,-0.733261,-0.277824,0.289879,0.0235748,0.393257,-0.218658,-0.569382,-0.279579,-0.228271,-0.734024,0.666656,-0.314751,-0.0289917
664,9,10.1739,-29.3705,-415.501,-87681.9,-56277.2,1121.85,67.4644,-93.3568,-0.384357,-0.0167963,0.388284,2.36106,29.4058,75.8918,161.131,198.84,300.407,0.0558755,0.595306,-0.0282652,1.00071,262.797,31.5455,-787.702,-199.669,-305.422,-0.130892,0.0141907,0.000915527,-0.00289917,0.01297,-0.146179,-0.00213623,0.0135803,-0.0160217,-0.0230408,0.0456238,-0.0730896,-0.0743103,0.0473022,-0.0202942,-0.0637817,-0.107727,2.65778,2.67914,0.0325012,0.00534058,0.0485229,0.00305176,0.138245,-0.022583,-0.0747681,0.410004,0.0205994,-0.0038147,2.70859,2.78259,0.129289,0.471474,0.292214,29.7957,124.641,-5.53311,207.643,-1058.39,0.0770316,-0.0644684,-0.0920868,0.0883865,-0.0405121,-0.0217056,0.0325012,-0.10025,0.0424576,0.218925,0.260849,0.27626,0.187531,-0.209274,0.237503,-0.165863,0.24559,-0.108452,-0.0170898,-0.223503,-0.127525,-0.745316,-0.275917,0.279541,0.0251389,0.406342,-0.209084,-0.571442,-0.294037,-0.216522,-0.716934,0.665474,-0.282402,-0.00488281
665,0,10.4449,-29.9003,-417.271,-87723.9,-56665.8,1010.37,67.108,-94.1512,-0.384495,1.03683,0.925837,0.240819,117.784,6.26279,124.036,198.84,300.407,0.0558755,0.774294,-0.117204,-1.83701,351.359,66.7674,-787.66,-163.193,-496.38,-0.0465136,0.00900269,0.000152588,0.00518799,0.0344849,-0.329437,0.0157166,0.0315857,0.00244141,-0.00946045,0.0523376,-0.0584412,-0.0994873,0.0569153,-0.00488281,-0.0408936,-0.0863647,2.63733,2.64618,0.00595093,0.0218201,0.0105286,0.0338745,0.00320435,-0.0382996,-0.0227356,0.291748,-0.00686646,0.0088501,3.2753,3.27362,0.485713,0.112974,-1.49534,-15.4772,-17.9844,-99.4998,195.727,-1048.11,0.0728091,-0.0767136,-0.0752258,0.0844574,-0.0195694,0.00968933,-0.0175476,-0.0974274,0.0922012,0.195618,0.284576,0.257301,0.149994,-0.207481,0.242043,-0.206451,0.232468,-0.114975,0.0114059,-0.193977,-0.113716,-0.709724,-0.279236,0.295753,0.0419998,0.399666,-0.214806,-0.571022,-0.302429,-0.254021,-0.740051,0.665779,-0.275993,0.0012207
665,1,10.8938,-30.7823,-418.332,-88164,-56809.3,972.588,67.1098,-93.633,-0.384748,0.34074,-0.231949,-1.5267,293.571,42.2375,105.558,226.484,108.105,0.119281,0.773897,-0.470307,0.291498,307.253,-3.37033,-862.007,-199.669,-305.422,-0.130892,0.00411987,0.00320435,-0.00518799,0.0106812,-0.259705,0.0137329,0.0123596,0.0271606,-0.0125122,0.0105286,-0.059967,-0.0720215,0.0587463,0.00640869,-0.0561523,-0.0634766,2.65884,2.64969,-0.027771,-0.00656128,-0.00289917,0.00518799,-0.153961,-0.00244141,-0.00213623,0.231476,0.00335693,-0.00869751,3.30139,3.29666,-0.0493787,-0.238774,0.651227,-60.5949,-53.5061,-42.8226,207.643,-1058.39,0.0770316,-0.0608063,-0.0775909,0.0882339,-0.0069046,-0.0131607,0.00183105,-0.105019,0.0852203,0.205002,0.284271,0.273895,0.163345,-0.220451,0.257607,-0.177002,0.256004,-0.0934982,-0.00087738,-0.227814,-0.115242,-0.727043,-0.276833,0.287132,0.00907898,0.370598,-0.221519,-0.599937,-0.293274,-0.227432,-0.719986,0.697365,-0.292969,0.00213623
