Gait Cycle Parameters
100
Subject,Context,Name,Value,Units,Description
RSS05,Left,Cadence,114.286,steps/min,
RSS05,Left,Walking Speed,1.18835,m/s,
RSS05,Left,Stride Time,1.05,s,
RSS05,Left,Step Time,0.53,s,
RSS05,Left,Opposite Foot Off,11.4286,%,
RSS05,Left,Opposite Foot Contact,49.5238,%,
RSS05,Left,Foot Off,63.8095,%,
RSS05,Left,Single Support,0.4,s,
RSS05,Left,Double Support,0.27,s,
RSS05,Left,Stride Length,1.24777,m,
RSS05,Left,Step Length,0.606147,m,
RSS05,Left,Step Width,0.190061,m,
RSS05,Left,Limp Index,1.03077,,
RSS05,Right,Cadence,112.15,steps/min,
RSS05,Right,Walking Speed,1.19454,m/s,
RSS05,Right,Stride Time,1.07,s,
RSS05,Right,Step Time,0.52,s,
RSS05,Right,Opposite Foot Off,12.1495,%,
RSS05,Right,Opposite Foot Contact,51.4019,%,
RSS05,Right,Foot Off,62.6168,%,
RSS05,Right,Single Support,0.42,s,
RSS05,Right,Double Support,0.25,s,
RSS05,Right,Stride Length,1.27816,m,
RSS05,Right,Step Length,0.635447,m,
RSS05,Right,Step Width,0.209775,m,
RSS05,Right,Limp Index,1.03077,,

Devices
1000
,,FP2 - Force,,,FP2 - Moment,,,FP2 - CoP,,,FP1 - Force,,,FP1 - Moment,,,FP1 - CoP,,,FP1 - Raw,,,,,,FP4 - Force,,,FP4 - Moment,,,FP4 - CoP,,,A-Myon EMG - Voltage,,,,,,,,,,,,,,,,,,B-Myon EMG - Voltage,,,,,,,,,,,,FP3 - Force,,,FP3 - Moment,,,FP3 - CoP,,,EMG_A_Acc - Voltage,,,,,,,,,,,,,,,,EMG_B_Acc - Voltage,,,,,,,,,,,,,,,,Trigger - Electric Potential,
Frame,Sub Frame,Fx,Fy,Fz,Mx,My,Mz,Cx,Cy,Cz,Fx,Fy,Fz,Mx,My,Mz,Cx,Cy,Cz,Pin 9,Pin 10,Pin 11,Pin 12,Pin 13,Pin 14,Fx,Fy,Fz,Mx,My,Mz,Cx,Cy,Cz,EMG_A01,EMG_A02,EMG_A03,EMG_A04,EMG_A05,EMG_A06,EMG_A07,EMG_A08,EMG_A01_Accz,EMG_A02_Accz,EMG_A03_Accz,EMG_A04_Accz,EMG_A05_Accz,EMG_A06_Accz,EMG_A07_Accz,EMG_A08_Accz,FswA,FswB,EMG_B01,EMG_B02,EMG_B03,EMG_B04,EMG_B05,EMG_B06,EMG_B07,EMG_B08,EMG_B09,EMG_B10,EMG_B11,EMG_B12,Fx,Fy,Fz,Mx,My,Mz,Cx,Cy,Cz,1,2,3,4,5,6,7,8,9,10,11,12,13,14,15,16,1,2,3,4,5,6,7,8,9,10,11,12,13,14,15,16,1
,,N,N,N,N.mm,N.mm,N.mm,mm,mm,mm,N,N,N,N.mm,N.mm,N.mm,mm,mm,mm,V,V,V,V,V,V,N,N,N,N.mm,N.mm,N.mm,mm,mm,mm,V,V,V,V,V,V,V,V,V,V,V,V,V,V,V,V,V,V,V,V,V,V,V,V,V,V,V,V,V,V,N,N,N,N.mm,N.mm,N.mm,mm,mm,mm,V,V,V,V,V,V,V,V,V,V,V,V,V,V,V,V,V,V,V,V,V,V,V,V,V,V,V,V,V,V,V,V,V
336,0,0,0,0,0,0,0,202.9,-304.365,-0.0795827,1.57088,-1.60723,4.82375,850.905,-1726.95,419.901,198.84,300.407,0.0558755,-0.00427246,-0.00427246,-0.00213623,-0.00457764,-0.0134277,-0.00579834,3.41643,-2.52076,7.5271,725.119,-1463.63,286.391,-199.669,-305.422,-0.130892,0.00579834,0.0245667,0.0161743,-0.0350952,0.00808716,0.0170898,0.000305176,0.0143433,0.0192261,0.0431824,0.11795,-0.206909,0.0384521,0.110474,-0.0798035,-0.146484,2.63824,2.64328,0.0231934,-0.00442505,-0.0222778,0.00152588,0.0949097,0.030365,0.0305176,-0.0830078,-0.00839233,-0.0268555,-0.0236511,0.00839233,3.58856,-2.39276,3.21803,633.367,-925.014,453.388,207.643,-1058.39,0.0770316,-0.0204086,0.0708008,0.0713348,0.294533,0.0607681,0.36705,-0.0302505,-0.184174,-0.189323,-0.202789,-0.623283,0.0741196,-0.09758,0.198784,-0.00648499,0.335464,0.00236511,0.0762177,0.137749,0.0432968,0.132637,0.21019,-0.147934,-0.211029,0.0629807,-0.213165,-0.167122,0.167007,0.0485229,0.0978851,-0.0852203,-0.0615692,0.0183105
336,1,0,0,0,0,0,0,202.9,-304.365,-0.0795827,1.65929,-1.87265,6.23774,632.309,-2008.42,624.256,198.84,300.407,0.0558755,-0.00457764,-0.00518799,-0.00335693,-0.00305176,-0.0158691,-0.00915527,2.97332,-2.34496,7.52678,1035.57,-1567.82,416.711,-199.669,-305.422,-0.130892,-0.00518799,0.0238037,0.0250244,-0.0724792,0.0738525,0.00198364,0.0151062,0.0230408,0.0256348,0.0778198,0.113525,-0.218506,0.0137329,0.104675,-0.0657654,-0.122986,2.65167,2.67792,0.012207,0.00488281,0.00274658,0.0160217,0.0737,0.00823975,-0.0421143,-0.0669861,0.063324,0.0891113,-0.0239563,0.0418091,0,0,0,0,0,0,207.643,-1058.39,0.0770316,-0.0341034,0.0749207,0.0646591,0.289841,0.0717163,0.388527,-0.0514221,-0.214767,-0.184784,-0.19783,-0.622635,0.0502014,-0.0755692,0.217094,0.0322342,0.339851,0.0132751,-0.000152588,0.162468,0.0981522,0.101891,0.222206,-0.102882,-0.191727,0.0225067,-0.212975,-0.182877,0.206032,0.079422,0.0680923,-0.10704,-0.0144196,0.00335693
336,2,0,0,0,0,0,0,202.9,-304.365,-0.0795827,1.57205,-1.78479,4.47033,719.978,-1937.89,531.373,198.84,300.407,0.0558755,-0.00427246,-0.00488281,-0.00183105,-0.00366211,-0.0152588,-0.00762939,3.32835,-2.87454,8.23663,725.215,-1533.59,416.514,-199.669,-305.422,-0.130892,0.0189209,0.0302124,0.0300598,-0.0738525,0.100555,0.0234985,0.0331116,-0.00793457,0.0109863,0.14389,0.202484,-0.239563,-0.0239563,0.113068,-0.0569153,-0.124817,2.66663,2.65427,0.00427246,0.0463867,-0.0100708,-0.00137329,0.100403,0.0448608,0.01297,-0.107574,0.08255,0.238953,0.0187683,0.0238037,0,0,0,0,0,0,207.643,-1058.39,0.0770316,-0.00953674,0.0703049,-0.356522,0.299301,0.100327,0.422287,-0.049057,-0.0469971,-0.234261,-0.351677,-0.566597,0.00782013,-0.0438309,0.225945,0.00282288,0.341721,0.0228882,0.0012207,0.140762,0.0638962,0.13237,0.234261,-0.134048,-0.237617,0.0407791,-0.198936,-0.177116,0.172577,0.0113297,0.10006,-0.0696564,-0.0266647,0.000915527
336,3,0,0,0,0,0,0,202.9,-304.365,-0.0795827,0,0,0,0,0,0,198.84,300.407,0.0558755,-0.00610352,-0.00457764,-0.000305176,-0.00183105,-0.0125122,-0.00854492,2.79606,-2.52195,8.59093,681.14,-1638.7,435.107,-199.669,-305.422,-0.130892,-0.000915527,0.0119019,0.0282288,-0.0924683,0.00762939,0.0245667,0.0215149,-0.00656128,0.043335,0.118408,0.193939,-0.221863,-0.0494385,0.098877,-0.0531006,-0.113678,2.65778,2.70615,0.0244141,0.0115967,-0.0242615,0.0382996,0.102234,0.00671387,0.00915527,-0.0161743,0.132904,0.310516,-0.0204468,0.0189209,0,0,0,0,0,0,207.643,-1058.39,0.0770316,-0.00774384,0.03685,-0.342636,0.259552,0.0645447,0.427094,-0.0379181,-0.0457764,-0.233841,-0.329895,-0.583649,0.00312805,-0.106735,0.214043,0.0244141,0.341988,0.0273895,0.0302124,0.127487,0.096817,0.139198,0.183563,-0.114708,-0.173149,0.0451279,-0.180321,-0.152397,0.178223,0.0648499,0.0760651,-0.0889206,-0.0281143,-0.00213623
336,4,0,0,0,0,0,0,202.9,-304.365,-0.0795827,0,0,0,0,0,0,198.84,300.407,0.0558755,-0.00549316,-0.00396729,-0.000305176,-0.00427246,-0.0137329,-0.00732422,2.79752,-2.25776,5.04352,769.388,-1463.49,379.346,-199.669,-305.422,-0.130892,0.014801,0.0224304,0.065155,-0.085907,-0.0758362,0.0131226,0.015564,0.00274658,0.014801,0.131683,0.195312,-0.252228,-0.0592041,0.113831,-0.0457764,-0.111847,2.66754,2.65884,0.0167847,0.0384521,0.00274658,-0.00289917,0.0827026,0.0370789,0.0216675,0.0523376,0.186462,0.342102,0.0154114,0.00793457,3.67804,-1.6819,3.21667,949.51,-853.995,302.063,207.643,-1058.39,0.0770316,0.0212097,0.0774002,-0.357094,0.229378,0.0759125,0.415993,-0.0402451,-0.00038147,-0.218277,-0.333862,-0.584946,-0.00553131,-0.0905228,0.243225,-0.00213623,0.308952,0.0132751,0.0511551,0.168724,-0.00514984,0.12825,0.233383,-0.0644684,-0.21965,0.0689316,-0.155411,-0.161095,0.171204,0.0432587,0.0754547,-0.0460434,-0.0131989,-0.00701904
336,5,2.66864,-1.26554,5.30225,1087.73,-146.263,527.53,202.9,-304.365,-0.0795827,0,0,0,0,0,0,198.84,300.407,0.0558755,-0.00671387,-0.00549316,0.000610352,-0.00396729,-0.0131226,-0.00732422,2.97268,-2.25627,8.23621,769.433,-1463.52,305.003,-199.669,-305.422,-0.130892,-0.00793457,0.00534058,0.0837708,-0.0839233,-0.0697327,0.0151062,-0.00854492,-0.012207,0.0390625,0.116119,0.186768,-0.243988,-0.091095,0.111694,-0.0598145,-0.124969,2.67776,2.66998,0.00152588,0.0158691,-0.015564,0.020752,0.080719,0.0140381,0.01297,0.15625,0.142212,0.239258,-0.00671387,0.0250244,3.1408,-1.68137,3.57485,813.966,-996.471,302.471,207.643,-1058.39,0.0770316,0.0160599,0.0739288,-0.33577,0.260963,0.0569916,0.386353,-0.0119019,-0.0631332,-0.229836,-0.279732,-0.613976,-0.00392914,-0.0893402,0.223579,-0.0114441,0.370178,0.0575638,0.0766754,0.152397,0.00125885,0.120888,0.207329,-0.115967,-0.198059,0.0863647,-0.154114,-0.160255,0.182037,0.0271225,0.0959778,-0.0910187,-0.0357437,0.00366211
336,6,0,0,0,0,0,0,202.9,-304.365,-0.0795827,2.36264,-1.60319,4.11734,850.857,-1726.93,494.24,198.84,300.407,0.0558755,-0.00701904,-0.00427246,-0.00152588,-0.00457764,-0.0134277,-0.00701904,3.15106,-2.78653,8.23649,548.374,-1709.05,379.294,-199.669,-305.422,-0.130892,0.0137329,0.0210571,0.0968933,-0.117493,-0.219574,0.0105286,0.00457764,0.0213623,0.00930786,0.111084,0.18692,-0.269928,-0.0704956,0.092926,-0.0666809,-0.115051,2.66556,2.66586,-0.00518799,0.00671387,0.0163269,-0.00473022,0.0704956,0.032196,-0.00228882,0.113678,-0.0549316,0.146332,-0.0167847,0.0260925,0,0,0,0,0,0,207.643,-1058.39,0.0770316,-0.00492096,0.0926208,-0.353241,0.227928,0.0842285,0.401955,-0.0413513,-0.0388718,-0.19619,-0.342102,-0.582619,0.00724792,-0.108223,0.248566,0.00888824,0.31311,0.0199509,0.118141,0.158882,0.0351715,0.0992203,0.203934,-0.10067,-0.220757,0.0582504,-0.163536,-0.138817,0.203476,0.0436401,0.071907,-0.0928497,-0.020752,0.000915527
336,7,2.76247,-1.88441,3.8862,1132.37,-216.707,397.426,202.9,-304.365,-0.0795827,0,0,0,0,0,0,198.84,300.407,0.0558755,-0.00579834,-0.00366211,-0.000610352,-0.00427246,-0.0131226,-0.00915527,2.88608,-2.52254,6.10785,902.362,-1463.16,379.425,-199.669,-305.422,-0.130892,0.00747681,0.00854492,0.0837708,-0.0715637,-0.14389,-0.0125122,-0.00762939,0.0286865,0.0178528,0.132294,0.196838,-0.245819,-0.0483704,0.0932312,-0.0704956,-0.120697,2.64496,2.66403,0.0198364,-0.00167847,-0.0192261,0.00198364,0.0994873,0.0276184,-0.0741577,0.11795,-0.0730896,0.0610352,-0.0241089,-0.00488281,0,0,0,0,0,0,207.643,-1058.39,0.0770316,0.00923157,0.106468,-0.310593,0.281067,0.0813293,0.394669,-0.0178909,-0.0312424,-0.232735,-0.309563,-0.520363,0.00541687,-0.0751114,0.226402,-0.0352097,0.355453,0.0111008,0.0984573,0.135345,0.0606918,0.142288,0.193481,-0.119171,-0.22892,0.0463486,-0.181313,-0.13855,0.203171,0.0791168,0.0873184,-0.0518036,-0.0527191,-0.00610352
336,8,0,0,0,0,0,0,202.9,-304.365,-0.0795827,0,0,0,0,0,0,198.84,300.407,0.0558755,-0.00488281,-0.00335693,0.0012207,-0.00488281,-0.0146484,-0.0088501,3.2398,-2.6981,7.52705,769.234,-1428.45,490.849,-199.669,-305.422,-0.130892,-0.00930786,0.010376,0.119781,-0.0675964,-0.06073,-0.0210571,0.027771,0.0167847,0.00549316,0.123596,0.165558,-0.242157,-0.0523376,0.0932312,-0.0706482,-0.114899,2.65625,2.64587,-0.00167847,-0.0234985,0.00717163,0.000610352,0.0698853,0.0292969,-0.0532532,0.130005,-0.0564575,-0.0334167,0.0050354,0.015564,0,0,0,0,0,0,207.643,-1058.39,0.0770316,0.0253296,0.0937271,-0.351143,0.259552,0.0764465,0.413284,-0.0383377,-0.084343,-0.224915,-0.310898,-0.575104,0.0180054,-0.0526428,0.240822,0.0282288,0.341873,0.0114441,0.103722,0.13813,0.0476074,0.125237,0.209084,-0.106773,-0.20359,0.00728607,-0.178909,-0.121346,0.154305,0.0608063,0.0881958,-0.0366974,-0.0254059,0.00183105
336,9,0,0,0,0,0,0,202.9,-304.365,-0.0795827,0,0,0,0,0,0,198.84,300.407,0.0558755,-0.00640869,-0.00396729,0.000610352,-0.00457764,-0.0128174,-0.0088501,3.06186,-2.43307,7.88159,858.309,-1568.28,360.848,-199.669,-305.422,-0.130892,0.0152588,-0.0300598,0.106964,-0.0427246,0.0149536,0.000610352,0.00747681,0.00442505,0.0354004,0.194244,0.50293,-0.262451,-0.0915527,0.105743,-0.0787354,-0.0265503,2.64999,2.65747,0.00991821,0.00152588,-0.0163269,0.0106812,0.105591,0.0239563,-0.0592041,0.0424194,-0.0630188,-0.0120544,-0.0267029,0.00473022,0,0,0,0,0,0,207.643,-1058.39,0.0770316,-0.0471497,0.0723648,-0.411835,0.295563,0.0594711,0.462914,-0.0479889,0.0577545,-0.257416,-0.538254,-0.377388,-0.0353241,-0.110703,0.267906,0.0462341,0.314064,0.0450516,0.0671387,0.153847,-0.000305176,0.129814,0.271835,-0.146904,-0.220642,0.0270462,-0.190315,-0.160713,0.175819,0.0473785,0.0867462,-0.0249863,-0.0308609,0
337,0,0,0,0,0,0,0,202.9,-304.365,-0.0795827,0,0,0,0,0,0,198.84,300.407,0.0558755,-0.00610352,-0.00396729,-0.000305176,-0.00335693,-0.012207,-0.0088501,3.1493,-1.9906,7.8815,680.977,-1568.71,416.499,-199.669,-305.422,-0.130892,-0.000305176,-0.0360107,0.131226,-0.0157166,0.0813293,0.00244141,0.00396729,0.00854492,0.0151062,0.161743,0.518188,-0.229187,-0.0848389,0.103149,-0.0619507,-0.0138855,2.65366,2.65442,0.00518799,0.00228882,-0.0100708,-0.000457764,0.131531,0.0135803,-0.00183105,-0.0523376,-0.00946045,-0.0115967,0.0141907,-0.00244141,3.8585,-1.67998,4.28912,452.479,-1067.73,321.871,207.643,-1058.39,0.0770316,0.00747681,0.0488663,-0.4599,0.27401,0.0468826,0.458908,-0.00812531,0.0503922,-0.240898,-0.49057,-0.391541,-0.0923538,-0.0907135,0.297737,0.00556946,0.309029,0.00892639,0.0922775,0.162392,0.0360107,0.118256,0.200081,-0.109024,-0.150871,0.0217438,-0.173912,-0.159111,0.207024,0.0226593,0.0442123,-0.0786591,-0.0201797,-0.00854492
337,1,0,0,0,0,0,0,202.9,-304.365,-0.0795827,0,0,0,0,0,0,198.84,300.407,0.0558755,-0.00701904,-0.00488281,-0.000305176,-0.00366211,-0.0119019,-0.00732422,2.97377,-2.61019,7.8816,902.32,-1428.18,305.071,-199.669,-305.422,-0.130892,0.0213623,-0.0343323,0.121307,0.0260925,0.0537109,-0.0050354,0.0170898,-0.00488281,0.0189209,0.177307,0.518036,-0.265961,-0.0897217,0.119476,-0.0561523,-0.0257874,2.65411,2.66418,0.040741,0.00640869,-0.0184631,0.019989,0.180054,-0.00808716,-0.0320435,-0.148926,0.0543213,0.00762939,-0.0427246,-0.0263977,0,0,0,0,0,0,207.643,-1058.39,0.0770316,0.0163269,0.0914764,-0.402412,0.272636,0.018959,0.427094,-0.0495148,0.0344849,-0.242119,-0.482521,-0.382996,-0.0484085,-0.101318,0.23632,-0.00305176,0.307999,0.0625229,0.138588,0.169029,-0.0050354,0.173798,0.219879,-0.0898361,-0.22953,0.0496674,-0.132751,-0.193138,0.181541,0.0208664,0.0363922,-0.0827789,-0.0134277,-0.00946045
337,2,0,0,0,0,0,0,202.9,-304.365,-0.0795827,0,0,0,0,0,0,198.84,300.407,0.0558755,-0.00518799,-0.00366211,-0.000915527,-0.00427246,-0.0137329,-0.0088501,2.70859,-2.52275,6.81721,681.185,-1638.73,360.765,-199.669,-305.422,-0.130892,0.0160217,-0.0196838,0.0881958,-0.0123596,0.0332642,-0.00259399,0.0224304,0.0062561,0.0193787,0.175629,0.524902,-0.250244,-0.0820923,0.0904846,-0.0717163,-0.00656128,2.66083,2.66144,-0.00366211,0.0160217,0.0253296,0.00106812,0.136566,0.0228882,0.0474548,-0.123596,-0.0418091,-0.0178528,0.000762939,-0.0186157,3.49884,-1.77079,3.21704,904.541,-1209.9,434.72,207.643,-1058.39,0.0770316,0.0354004,0.0860977,-0.411835,0.271912,0.0523376,0.39814,-0.0502777,0.0442886,-0.240707,-0.486832,-0.390892,-0.0382614,-0.0937653,0.273666,0.00377655,0.275612,-0.00480652,0.165672,0.188332,-0.00553131,0.111961,0.207672,-0.111275,-0.188675,0.0745392,-0.202484,-0.151367,0.205002,0.0302505,0.0546646,-0.0751877,-0.0178909,-0.010376
337,3,2.93635,-1.35308,4.24032,1044.69,-323.046,434.549,202.9,-304.365,-0.0795827,0,0,0,0,0,0,198.84,300.407,0.0558755,-0.00671387,-0.00488281,-0.000915527,-0.00396729,-0.0137329,-0.00915527,3.23805,-2.07883,7.88158,947.382,-1743.06,379.544,-199.669,-305.422,-0.130892,0.00518799,-0.0379944,0.0564575,-0.0512695,0.0340271,-0.0274658,-0.00289917,0.0230408,0.0419617,0.194702,0.518036,-0.224915,-0.0759888,0.112,-0.0502014,-0.0242615,2.65564,2.65457,0.00900269,0.0135803,-0.0384521,-0.00213623,0.163727,0.0169373,0.0434875,-0.0863647,-0.0570679,0.0205994,-0.0170898,-0.0335693,0,0,0,0,0,0,207.643,-1058.39,0.0770316,-0.0151443,0.0527191,-0.386276,0.286026,0.0416946,0.410538,-0.0390625,0.0207901,-0.278778,-0.491257,-0.37529,-0.017395,-0.0750351,0.273323,0.0186539,0.301399,0.0476456,0.202789,0.158005,-0.0043869,0.171547,0.188103,-0.0916672,-0.216255,0.0259781,-0.159073,-0.118675,0.186501,0.0439072,0.0642776,-0.0998306,-0.029068,-0.00457764
337,4,2.58241,-1.61967,4.94817,867.511,-182.702,508.621,202.9,-304.365,-0.0795827,0,0,0,0,0,0,198.84,300.407,0.0558755,-0.00579834,-0.00396729,0.000610352,-0.00396729,-0.0131226,-0.00823975,3.32684,-2.60873,9.65547,858.254,-1568.25,453.776,-199.669,-305.422,-0.130892,0.0187683,-0.0123596,0.0482178,-0.045929,-0.0706482,0.01297,0.012207,0.0128174,0.00991821,0.181274,0.519409,-0.225677,-0.0758362,0.112762,-0.0540161,-0.0108337,2.68219,2.66037,-0.0108337,0.0154114,0.0349426,0.0146484,0.0843811,-0.00396729,0.0823975,-0.0593567,-0.0816345,-0.0299072,0.00564575,0.0260925,3.67771,-2.1268,2.8599,949.611,-925.087,377.604,207.643,-1058.39,0.0770316,-0.00595093,0.077858,-0.42057,0.274734,0.0776672,0.431023,-0.0296783,0.0259018,-0.249557,-0.516357,-0.385704,-0.0648499,-0.103302,0.306511,0.0177383,0.313263,0.00263214,0.145035,0.190353,0.018158,0.159721,0.218811,-0.133095,-0.200462,0.0644302,-0.208855,-0.164108,0.189743,0.0746536,0.0495529,-0.0745773,0.0122833,-0.00946045
337,5,0,0,0,0,0,0,202.9,-304.365,-0.0795827,0,0,0,0,0,0,198.84,300.407,0.0558755,-0.00518799,-0.00427246,-0.000305176,-0.00244141,-0.0119019,-0.0088501,3.23979,-2.52143,6.81753,1079.68,-1462.73,342.36,-199.669,-305.422,-0.130892,0.0268555,-0.018158,0.00427246,-0.0119019,-0.0909424,0.0128174,0.0221252,0.00305176,0.0343323,0.185852,0.510712,-0.251007,-0.0740051,0.109863,-0.0520325,-0.00350952,2.66739,2.66724,0.00259399,0.0216675,0.00228882,-0.00717163,0.0813293,0.0297546,0.0151062,-0.0453186,-0.0448608,-0.0163269,-0.01297,-0.00762939,3.41003,-1.59184,3.93194,949.696,-1138.7,415.688,207.643,-1058.39,0.0770316,-0.0157166,0.0703812,-0.442429,0.302048,0.0455856,0.415344,-0.00873566,0.0377655,-0.249519,-0.510483,-0.385513,-0.0534821,-0.0927734,0.264626,0.00705719,0.34893,0.0139999,0.163383,0.177269,-0.000801086,0.133743,0.248795,-0.0935364,-0.209732,0.0510025,-0.20401,-0.134659,0.190659,0.0244522,0.0840378,-0.0393677,-0.0215912,0.00488281
337,6,3.0262,-1.70596,4.59475,1088.54,-287.5,471.799,202.9,-304.365,-0.0795827,0,0,0,0,0,0,198.84,300.407,0.0558755,-0.00732422,-0.00427246,0.000610352,-0.00366211,-0.0128174,-0.00823975,2.88632,-2.87599,7.17217,724.444,-1218.58,397.824,-199.669,-305.422,-0.130892,0.00274658,-0.00793457,0.00732422,0.012207,-0.0964355,0.00335693,0.0196838,0.015564,0.00473022,0.261993,0.377502,-0.266266,-0.100555,0.0866699,-0.0424194,0.0292969,2.68311,2.68066,0.00274658,0.00213623,0.0050354,0.0254822,0.0239563,0.0263977,0.0282288,0.0111389,0.0282288,-0.0340271,0.0132751,0.0120544,3.67842,-1.50356,3.57391,994.798,-1138.82,340.22,207.643,-1058.39,0.0770316,0.0172806,-0.0643158,-0.322151,0.233994,0.0476074,0.401382,-0.0501633,0.0662994,-0.213699,-1.01814,-0.33947,-0.0249481,-0.0662994,0.249557,0.0145721,0.298157,0.0415039,0.123253,0.171089,0.0285339,0.143471,0.231781,-0.118484,-0.196457,0.0845337,-0.181465,-0.188484,0.174751,0.0429153,0.0238419,-0.0548172,-0.00774384,0.0115967
337,7,0,0,0,0,0,0,202.9,-304.365,-0.0795827,0,0,0,0,0,0,198.84,300.407,0.0558755,-0.00671387,-0.00518799,0.000610352,-0.00427246,-0.0131226,-0.0109863,2.7084,-2.78763,8.23623,857.961,-1428.28,360.802,-199.669,-305.422,-0.130892,0.0100708,-0.0239563,-0.0524902,0.0216675,-0.0814819,0.0143433,-0.00686646,-0.0109863,0.0205994,0.261688,0.374146,-0.27771,-0.0805664,0.101929,-0.0479126,0.0265503,2.66769,2.677,0.0205994,-0.0131226,0.000305176,0.00793457,0.00946045,0.0157166,-0.0119019,0.0799561,0.0753784,-0.0166321,-0.0120544,-0.0160217,3.67934,-1.94658,4.2898,723.774,-1067.45,453.534,207.643,-1058.39,0.0770316,-0.0290298,-0.0517273,-0.303535,0.246582,0.0614929,0.383034,-0.0459671,0.0840759,-0.294151,-1.0178,-0.284996,-0.00328064,-0.0463104,0.256691,-0.00617981,0.310287,0.0142288,0.178146,0.17067,-0.0352097,0.119514,0.201912,-0.0971603,-0.160866,0.0380707,-0.205116,-0.103378,0.223236,-0.0159073,0.0522232,-0.0457382,-0.00648499,0.0119019
337,8,3.02958,-2.05998,3.53257,1088.65,-287.537,397.396,202.9,-304.365,-0.0795827,0,0,0,0,0,0,198.84,300.407,0.0558755,-0.00518799,-0.00427246,-0.0012207,-0.00396729,-0.0140381,-0.00823975,3.32811,-2.52109,7.17232,946.925,-1568.04,416.658,-199.669,-305.422,-0.130892,-0.000762939,0.0166321,-0.0410461,0.00671387,-0.0230408,0.00823975,0.0212097,0.0186157,-0.00183105,0.231323,0.373383,-0.265808,-0.0776672,0.0953674,-0.0605774,0.0512695,2.68097,2.67563,-0.0209045,0.0138855,-0.00411987,0,-0.00732422,0.0210571,0.0234985,0.0881958,0.0250244,-0.0509644,0.0132751,0.0177002,3.58853,-2.21505,3.21772,859.119,-1032.14,264.774,207.643,-1058.39,0.0770316,0.0191116,-0.073967,-0.32402,0.26062,0.0709915,0.409737,-0.0341415,0.0608444,-0.291405,-1.00349,-0.360298,-0.0110626,-0.0296783,0.271759,0.0239944,0.304108,0.0761032,0.240211,0.163612,-0.0255203,0.152855,0.175858,-0.133858,-0.222168,0.058136,-0.180435,-0.1297,0.180817,0.018425,0.0923538,-0.129395,-0.0421906,0.0143433
337,9,3.02868,-1.88323,3.53248,1088.16,-181.648,360.141,202.9,-304.365,-0.0795827,1.74814,-1.87252,4.82393,323.691,-1869.9,531.098,198.84,300.407,0.0558755,-0.00488281,-0.00518799,-0.00213623,-0.000915527,-0.0146484,-0.00762939,3.23979,-2.60976,7.17229,680.705,-1463.69,435.05,-199.669,-305.422,-0.130892,0.0138855,0.00396729,-0.0466919,0.0398254,0.0239563,-0.0132751,0.00320435,-0.00228882,0.0112915,0.263824,0.365143,-0.288544,-0.0857544,0.106354,-0.0717163,0.027771,2.67502,2.68173,0.0308228,0.0141907,-0.00366211,0.0180054,0.0343323,0.0152588,0.000762939,0.0389099,0.00442505,-0.0138855,-0.0354004,-0.00640869,0,0,0,0,0,0,207.643,-1058.39,0.0770316,-0.00415802,-0.0829697,-0.285912,0.23243,0.0629425,0.418968,-0.0452805,0.0751877,-0.285492,-1.02974,-0.351448,0.0202942,-0.067215,0.249825,0.0549316,0.302086,0.0162125,0.259361,0.215187,-0.0650787,0.149117,0.25116,-0.121574,-0.281448,0.0510406,-0.217896,-0.104256,0.255203,-0.00572205,0.0547409,-0.0545883,-0.014534,0.0167847
338,0,0,0,0,0,0,0,202.9,-304.365,-0.0795827,0,0,0,0,0,0,198.84,300.407,0.0558755,-0.00366211,-0.00488281,-0.000915527,-0.00366211,-0.0134277,-0.00946045,3.15085,-2.78642,8.59123,814.148,-1638.39,379.43,-199.669,-305.422,-0.130892,-0.00167847,0.019989,-0.0209045,0.0297546,-0.00808716,-0.00610352,0.00839233,-0.0131226,-0.00289917,0.26001,0.378418,-0.26947,-0.0732422,0.0952148,-0.0608826,0.00152588,2.64893,2.66083,-0.00610352,0.00946045,0.00839233,0.01297,0.043335,0.0421143,0.0558472,0.0453186,-0.0315857,-0.0222778,0.0135803,-0.00915527,0,0,0,0,0,0,207.643,-1058.39,0.0770316,0.0235367,-0.0886154,-0.319443,0.223579,0.0833511,0.401878,-0.0450516,0.112267,-0.273361,-1.00578,-0.337715,-0.0111771,-0.0785828,0.264549,-0.0241089,0.293655,0.0520706,0.290375,0.134354,-0.021019,0.187187,0.176888,-0.1231,-0.262756,0.0542831,-0.214043,-0.115738,0.170555,0.0075531,0.121727,-0.104561,-0.0432587,0.0189209
338,1,0,0,0,0,0,0,202.9,-304.365,-0.0795827,0,0,0,0,0,0,198.84,300.407,0.0558755,-0.00640869,-0.00518799,0.000915527,-0.00213623,-0.0125122,-0.00762939,3.41535,-2.34351,8.59124,814.246,-1673.4,360.856,-199.669,-305.422,-0.130892,-0.00106812,-0.00488281,-0.0270081,0.0418091,0.0790405,0.0144958,-0.0111389,0.00839233,0.0230408,0.244141,0.354156,-0.275574,-0.0816345,0.0932312,-0.0668335,0.0276184,2.66129,2.66449,0.0248718,0.0038147,-0.01297,-0.01297,0.0662231,0.0282288,0.0592041,0.020752,-0.0495911,-0.0205994,-0.0236511,-0.0271606,0,0,0,0,0,0,207.643,-1058.39,0.0770316,0.00816345,-0.0985718,-0.296021,0.248871,0.0589371,0.383301,-0.0170517,0.0793839,-0.298805,-0.984764,-0.34893,0.0126266,-0.0632477,0.235634,0.0109863,0.309219,0.0124741,0.265541,0.151443,0.0195312,0.125008,0.227432,-0.087471,-0.242043,0.0564957,-0.216827,-0.129128,0.187302,0.0534058,0.0455856,-0.0810242,0.00984192,-0.00579834
338,2,0,0,0,0,0,0,202.9,-304.365,-0.0795827,0,0,0,0,0,0,198.84,300.407,0.0558755,-0.00793457,-0.00579834,0.000610352,-0.00244141,-0.0115967,-0.00793457,2.70708,-2.34527,8.59082,813.626,-1428.38,379.361,-199.669,-305.422,-0.130892,0.000610352,-0.00595093,0.0108337,0.0531006,0.027771,0.0224304,0.0180054,0.0152588,-0.0221252,0.224457,0.365906,-0.290833,-0.105896,0.0817871,-0.0531006,0.0379944,2.67075,2.66632,0.00518799,0.00473022,0.00289917,-0.0100708,0.0340271,0.0204468,0.0645447,-0.0302124,-0.0546265,-0.0914001,0.00473022,-0.00579834,0,0,0,0,0,0,207.643,-1058.39,0.0770316,0.0279999,-0.0611115,-0.292892,0.209961,0.0975418,0.403709,-0.0379944,0.0562668,-0.246201,-1.02776,-0.346298,0.00865936,-0.0936508,0.293388,0.0460434,0.302658,-0.0173187,0.285568,0.139084,-0.0117111,0.153923,0.280991,-0.103302,-0.223999,0.0704193,-0.233879,-0.125122,0.194244,0.00770569,0.0551605,-0.054245,-0.0208282,0.00671387
338,3,0,0,0,0,0,0,202.9,-304.365,-0.0795827,1.83653,-1.96079,4.82401,718.897,-1727.64,475.569,198.84,300.407,0.0558755,-0.00518799,-0.00549316,-0.00213623,-0.00366211,-0.0134277,-0.00671387,3.15082,-2.43308,7.17218,680.848,-1498.73,342.133,-199.669,-305.422,-0.130892,0.000762939,0.00595093,-0.019989,0.0314331,-0.0559998,-0.00778198,-0.00442505,0.0239563,0.00762939,0.470734,0.221405,-0.294647,-0.0405884,0.0738525,-0.0758362,0.0802612,2.64404,2.66068,0.038147,-0.0163269,-0.01297,-0.00259399,0.0749207,0.0291443,0.000762939,-0.0285339,0.0343323,-0.120087,-0.0012207,-0.0233459,0,0,0,0,0,0,207.643,-1058.39,0.0770316,0.018425,-0.098381,-0.121422,0.188026,0.0629044,0.365372,-0.0159836,0.0188446,-0.27195,-0.970001,-0.115623,0.0180817,-0.0520706,0.289574,-0.0289536,0.288239,0.0144577,0.267334,0.146179,0.0019455,0.12104,0.2388,-0.109062,-0.180511,0.0519562,-0.211105,-0.111313,0.177383,0.0162125,0.0763321,-0.083046,-0.0198746,0.0250244
338,4,0,0,0,0,0,0,202.9,-304.365,-0.0795827,1.74557,-1.60588,6.5912,718.043,-1587.42,642.798,198.84,300.407,0.0558755,-0.00488281,-0.00427246,-0.00366211,-0.00366211,-0.012207,-0.00946045,2.79687,-2.08074,5.39819,680.859,-1498.73,323.547,-199.669,-305.422,-0.130892,-0.00350952,0.0283813,-0.0285339,-0.0213623,-0.0453186,0.00671387,0.00549316,0.00213623,-0.0135803,0.452423,0.216522,-0.289612,-0.0413513,0.0622559,-0.0578308,0.0881958,2.65259,2.65823,0.00762939,0.00610352,0.0161743,0.00213623,0.038147,0.0128174,-0.0260925,0.0218201,0.0941467,-0.11795,0.0102234,-0.00808716,3.49974,-2.12495,3.93277,633.362,-1245.63,397.39,207.643,-1058.39,0.0770316,0.0546265,-0.113716,-0.128098,0.21534,0.0534439,0.39711,-0.0402069,-0.0275421,-0.256348,-0.962563,-0.151634,0.0100327,-0.0161743,0.279961,0.010643,0.302658,0.0775909,0.259247,0.153847,-0.0414276,0.154305,0.231438,-0.122757,-0.243721,0.0754929,-0.163841,-0.153122,0.205536,-0.00301361,-0.00362396,-0.103836,-0.0405502,-0.00152588
338,5,0,0,0,0,0,0,202.9,-304.365,-0.0795827,0,0,0,0,0,0,198.84,300.407,0.0558755,-0.00640869,-0.00671387,-0.000305176,-0.00244141,-0.0140381,-0.00579834,2.97183,-2.34414,10.0099,902.536,-1533.17,379.448,-199.669,-305.422,-0.130892,-0.0152588,0.00823975,-0.0387573,-0.00213623,-0.0892639,-0.00106812,0.00366211,0.00823975,-0.0192261,0.469513,0.202789,-0.32135,-0.0418091,0.0708008,-0.0820923,0.0778198,2.65518,2.65671,0.0178528,-0.00427246,-0.0213623,0.0276184,0.0679016,0.00442505,-0.0566101,0.0311279,0.183716,-0.0608826,-0.0270081,-0.0390625,0,0,0,0,0,0,207.643,-1058.39,0.0770316,-0.0216293,-0.118179,-0.15152,0.19062,0.0536728,0.42778,-0.0476456,0.00152588,-0.273018,-1.04759,-0.154305,0.0152588,-0.0476074,0.249062,0.0615692,0.288162,0.0151443,0.318794,0.204964,-0.0510788,0.173225,0.199432,-0.128326,-0.208054,0.029068,-0.209503,-0.118027,0.255241,-0.0157166,0.0291061,-0.118752,-0.0521088,0.00823975
338,6,3.29203,-1.5282,3.88682,1044.59,-287.771,378.73,202.9,-304.365,-0.0795827,0,0,0,0,0,0,198.84,300.407,0.0558755,-0.00488281,-0.00488281,-0.0012207,-0.00183105,-0.0143433,-0.00549316,3.0623,-2.52164,7.52689,858.287,-1568.27,398.019,-199.669,-305.422,-0.130892,-0.0088501,0.0230408,0.0224304,0.0219727,-0.208588,0.00732422,0.0172424,0.0234985,-0.0120544,0.441284,0.212555,-0.288086,-0.0401306,0.0878906,-0.0732422,0.0762939,2.6593,2.66266,-0.00869751,0.010376,0.0236511,-0.0180054,0.0454712,0.0205994,0.00442505,0.0439453,0.142059,-0.0285339,0.0233459,-0.00900269,3.76693,-2.30513,2.50256,768.833,-1067.64,340.357,207.643,-1058.39,0.0770316,0.04776,-0.136986,-0.175476,0.188179,0.0463486,0.409546,-0.0310898,0.0125885,-0.293159,-0.949783,-0.172272,-0.0373077,-0.0350952,0.252914,0.0502014,0.293617,0.0413513,0.304298,0.166016,-0.0406265,0.210114,0.242996,-0.140381,-0.235252,0.0170135,-0.21347,-0.112877,0.209084,0.00671387,0.0702667,-0.0917816,-0.0153732,-0.0128174
338,7,0,0,0,0,0,0,202.9,-304.365,-0.0795827,0,0,0,0,0,0,198.84,300.407,0.0558755,-0.00427246,-0.00671387,-0.0012207,-0.00244141,-0.0143433,-0.0088501,3.77039,-2.96143,9.65585,724.954,-1428.59,416.479,-199.669,-305.422,-0.130892,0.0050354,0.012207,0.0274658,0.0161743,-0.175476,0.00473022,0.00976562,0.000915527,0.00473022,0.474091,0.201111,-0.291748,-0.0527954,0.0973511,-0.0642395,0.0489807,2.65182,2.6619,0.0215149,-0.000915527,0.00518799,-0.00106812,0.0563049,0.0247192,0.0154114,0.0331116,0.0396729,0.0427246,-0.0134277,-0.032959,3.40963,-1.68132,3.57454,858.976,-854.244,170.19,207.643,-1058.39,0.0770316,0.0281143,-0.13504,-0.130463,0.159416,0.0119019,0.395203,-0.0501633,0.00980377,-0.265236,-0.965385,-0.180092,0.0282669,-0.0589752,0.21698,-0.00217438,0.276375,-0.0174332,0.231552,0.183029,-0.0289917,0.199051,0.221329,-0.0989914,-0.193787,0.0411606,-0.249519,-0.141449,0.220184,-0.030098,0.047226,-0.0952911,-0.00038147,-0.00610352
338,8,0,0,0,0,0,0,202.9,-304.365,-0.0795827,0,0,0,0,0,0,198.84,300.407,0.0558755,-0.00488281,-0.00701904,-0.0012207,-0.00335693,-0.0134277,-0.00610352,3.23937,-2.60953,7.88176,1035.78,-1637.85,360.977,-199.669,-305.422,-0.130892,0.00350952,0.0254822,0.0239563,0.0183105,-0.111084,0.015564,0.0305176,-0.00732422,-0.00488281,0.465546,0.224915,-0.276337,-0.0402832,0.0769043,-0.0486755,0.0941467,2.65244,2.64816,-0.0088501,0.0341797,0.0325012,0.0241089,0.0263977,-0.0205994,0.0167847,0.0358582,-0.0523376,0.0234985,0.0160217,0.00152588,0,0,0,0,0,0,207.643,-1058.39,0.0770316,0.056839,-0.129509,-0.135689,0.179634,0.0515366,0.391006,-0.0590897,0.00282288,-0.27523,-0.940208,-0.171051,0.0154495,-0.0597382,0.252991,0.000457764,0.243721,0.0586319,0.279655,0.13485,-0.0644684,0.188904,0.244522,-0.110092,-0.230827,0.0818253,-0.172386,-0.143623,0.169106,-0.0300217,0.0365829,-0.0935364,-0.0337982,0.0112915
338,9,0,0,0,0,0,0,202.9,-304.365,-0.0795827,2.45457,-2.40131,4.47105,850.719,-1691.9,419.893,198.84,300.407,0.0558755,-0.00732422,-0.00701904,-0.00183105,-0.00457764,-0.0131226,-0.00579834,2.79648,-2.52218,7.88146,858.298,-1568.28,379.433,-199.669,-305.422,-0.130892,0.0119019,0.010376,0.0105286,0.0141907,0.0239563,0.0213623,0.00930786,0.0128174,-0.000152588,0.452423,0.232086,-0.291138,-0.0454712,0.0863647,-0.0532532,0.0808716,2.62527,2.66357,0.0184631,0.0379944,0.00350952,-0.00854492,0.0820923,0.0328064,0.0125122,0.0415039,-0.0967407,-0.0314331,0.00854492,-0.0292969,0,0,0,0,0,0,207.643,-1058.39,0.0770316,0.0241852,-0.159264,-0.101509,0.207176,0.0468826,0.412254,-0.0385666,-0.0397873,-0.290222,-0.977211,-0.166779,0.0395584,-0.0381851,0.245399,0.0314713,0.277061,0.0473022,0.286598,0.182686,-0.0234222,0.127678,0.195007,-0.0910568,-0.207214,0.0896072,-0.214233,-0.132179,0.226822,-0.0246811,-0.0304413,-0.117607,-0.0524139,-0.00701904
339,0,0,0,0,0,0,0,202.9,-304.365,-0.0795827,1.92234,-1.69385,5.88441,719.407,-1832.75,549.933,198.84,300.407,0.0558755,-0.00549316,-0.00457764,-0.00305176,-0.00366211,-0.0143433,-0.00793457,3.23742,-2.16682,9.30054,902.395,-1463.18,323.668,-199.669,-305.422,-0.130892,-0.00305176,0.012207,-0.00854492,0.00701904,-0.132446,-0.00961304,0.000457764,0.0268555,-0.0241089,0.413208,0.141907,-0.270691,0.0105286,0.133209,-0.0628662,0.133057,2.68066,2.68143,0.00534058,-0.00579834,0.0216675,0.0379944,0.043335,0.0280762,0.0456238,0.0849915,0.0291443,-0.0505066,-0.00259399,0.0131226,3.59018,-2.12368,4.64777,768.917,-818.151,453.043,207.643,-1058.39,0.0770316,0.0283051,-0.0810242,-0.0939178,0.0241852,0.0371552,0.434265,-0.0408173,-0.0491333,-0.258942,-0.36129,-0.116539,0.0756073,-0.0442886,0.22213,0.0159073,0.26207,0.000915527,0.346489,0.155258,-0.0203705,0.203705,0.21965,-0.14576,-0.226326,0.0593948,-0.192108,-0.0972366,0.186768,0.00087738,0.075531,-0.115204,-0.0611496,0.00671387
339,1,2.58143,-1.53112,5.30225,1089.2,-428.691,509.071,202.9,-304.365,-0.0795827,2.01004,-1.6933,6.23793,632.232,-1973.42,456.985,198.84,300.407,0.0558755,-0.00579834,-0.00457764,-0.00335693,-0.00305176,-0.015564,-0.00640869,3.32769,-2.60919,8.23654,991.564,-1707.92,472.488,-199.669,-305.422,-0.130892,-0.0163269,0.00610352,-0.0604248,-0.0190735,0.0350952,0.0216675,-0.0106812,0.0202942,-0.000152588,0.433502,0.148621,-0.281372,-0.0238037,0.111389,-0.0650024,0.135498,2.65472,2.66205,0.00976562,-0.00900269,-0.00686646,-0.0210571,0.0378418,0.040741,0.0349426,0.0769043,0.119019,0.0413513,-0.0164795,-0.0256348,0,0,0,0,0,0,207.643,-1058.39,0.0770316,-0.0112915,-0.108147,-0.0761032,0.0829697,0.0380325,0.411758,-0.0110626,-0.0344467,-0.231628,-0.351334,-0.145683,0.0495148,-0.0284576,0.184479,0.00587463,0.286446,0.0230789,0.274391,0.170593,-0.00228882,0.162392,0.227852,-0.10582,-0.216179,0.0239563,-0.223083,-0.131149,0.212936,-0.0216293,0.0374603,-0.11261,-0.018158,-0.0134277
339,2,0,0,0,0,0,0,202.9,-304.365,-0.0795827,0,0,0,0,0,0,198.84,300.407,0.0558755,-0.00579834,-0.00518799,-0.000610352,-0.00366211,-0.015564,-0.00610352,2.88416,-2.43316,8.94568,725.162,-1498.61,360.745,-199.669,-305.422,-0.130892,-0.0256348,0.0253296,-0.0424194,-0.0227356,0.326538,-0.00183105,0.0125122,0.0344849,-0.0323486,0.389557,0.122833,-0.286407,-0.0164795,0.110779,-0.0746155,0.138245,2.68112,2.68555,0.00778198,-0.0109863,-0.00274658,0.0282288,0.0250244,-0.00640869,0.0175476,0.0872803,0.104828,0.0666809,-0.0286865,-0.0222778,0,0,0,0,0,0,207.643,-1058.39,0.0770316,0.00762939,-0.0600815,-0.067749,0.0409698,0.0223923,0.462952,-0.0474548,-0.0587463,-0.230484,-0.364494,-0.120888,0.0508118,-0.0625992,0.196571,0.0632095,0.249214,0.0312042,0.217133,0.214386,-0.0719833,0.171509,0.265312,-0.134773,-0.254059,0.0691223,-0.191154,-0.145378,0.204086,-0.0324249,0.0473785,-0.0666428,-0.0679016,-0.00335693
339,3,0,0,0,0,0,0,202.9,-304.365,-0.0795827,0,0,0,0,0,0,198.84,300.407,0.0558755,-0.00366211,-0.00549316,-0.00152588,-0.00427246,-0.0131226,-0.00640869,3.32747,-2.52074,8.23651,858.385,-1603.28,379.445,-199.669,-305.422,-0.130892,0.00411987,0.0434875,-0.0434875,-0.0596619,0.274353,-0.0100708,-0.0062561,-0.00640869,-0.0285339,0.421753,0.142517,-0.296936,-0.00549316,0.118713,-0.0656128,0.110779,2.65488,2.63748,0.00640869,0.0315857,0.012207,-0.0172424,0.0205994,0.0282288,0.0376892,0.00946045,0.0088501,0.0297546,0.0154114,-0.0204468,3.7677,-1.94845,3.21704,859.182,-782.687,358.605,207.643,-1058.39,0.0770316,0.0395966,-0.0879288,-0.101585,0.0640488,0.0220108,0.429573,-0.0348663,-0.0195312,-0.23571,-0.342331,-0.106506,0.0529861,-0.0318146,0.189667,0.00522614,0.257607,0.0136185,0.259247,0.195885,-0.0764084,0.139923,0.202293,-0.142403,-0.17437,0.026741,-0.205193,-0.114784,0.223885,-0.0732422,0.0252533,-0.0603867,-0.0516891,-0.00244141
339,4,0,0,0,0,0,0,202.9,-304.365,-0.0795827,0,0,0,0,0,0,198.84,300.407,0.0558755,-0.00579834,-0.00549316,-0.00152588,-0.00335693,-0.0134277,-0.00518799,2.53155,-2.87652,8.23615,945.893,-1148.03,397.934,-199.669,-305.422,-0.130892,0.00518799,0.0375366,-0.0106812,-0.0509644,0.246124,-0.00152588,0.00289917,-0.0193787,-0.0164795,0.404053,0.127258,-0.294952,-0.0187683,0.108643,-0.080719,0.115509,2.64877,2.64862,-0.0111389,0.0273132,-0.00289917,0.0108337,0.0234985,-0.00427246,-0.00167847,-0.0111389,0.014801,-0.0062561,-0.0242615,-0.015564,3.14125,-1.85845,3.93272,1130.5,-1245.47,434.52,207.643,-1058.39,0.0770316,0.0534821,-0.0885773,-0.0760269,0.0421524,-0.0140762,0.428772,-0.0522232,-0.0258255,-0.242004,-0.306473,-0.133553,0.0689697,-0.0522995,0.1231,0.0292969,0.26207,0.059433,0.240631,0.197029,-0.0574875,0.175591,0.213318,-0.120621,-0.23098,0.0688934,-0.152359,-0.146637,0.18795,-0.0416565,0.0323868,-0.118103,-0.0661087,0.0012207
339,5,2.93846,-1.97136,4.94887,955.28,-76.3896,415.695,202.9,-304.365,-0.0795827,0,0,0,0,0,0,198.84,300.407,0.0558755,-0.00518799,-0.00518799,-0.00152588,-0.00366211,-0.0137329,-0.00823975,3.06186,-2.43307,7.88159,902.71,-1603.17,379.471,-199.669,-305.422,-0.130892,-0.00656128,0.0392151,0.0288391,-0.0196838,0.190277,-0.00152588,0.0254822,-0.0102234,-0.0262451,0.408478,0.149689,-0.290527,-0.032196,0.0959778,-0.0566101,0.113068,2.66968,2.63992,0.00671387,0.0447083,0.0212097,-0.0253296,0.00549316,0.0416565,0.0212097,-0.0325012,-0.0663757,-0.0515747,0.0279236,-0.0111389,3.32173,-1.94539,5.00533,904.581,-960.476,509.697,207.643,-1058.39,0.0770316,0.0512695,-0.0809097,-0.0531387,0.0563431,0.0632477,0.44178,-0.0695419,-0.0428391,-0.255585,-0.338249,-0.126762,0.0703049,-0.0455856,0.200882,0.00637054,0.208092,-0.00102997,0.230751,0.239067,-0.0736618,0.191765,0.220528,-0.139999,-0.208435,0.0656128,-0.229111,-0.135574,0.24189,-0.029335,0.0152206,-0.100403,-0.0334549,0.00793457
339,6,2.76382,-2.14954,3.88634,1000.31,-287.932,508.869,202.9,-304.365,-0.0795827,0,0,0,0,0,0,198.84,300.407,0.0558755,-0.00518799,-0.00518799,0.000610352,-0.00335693,-0.012207,-0.00762939,2.97397,-2.43364,6.81734,902.743,-1603.19,323.714,-199.669,-305.422,-0.130892,0.0227356,0.0189209,0.0357056,0.00274658,0.169525,-0.00976562,-0.00396729,-0.0012207,0.0012207,0.412292,0.131531,-0.3125,-0.0128174,0.122833,-0.0585938,0.118866,2.64557,2.65717,0.00946045,0.00244141,-0.00961304,0.0180054,0.0312805,-0.00610352,-0.0169373,-0.0242615,-0.0271606,-0.057373,-0.0346375,-0.0189209,0,0,0,0,0,0,207.643,-1058.39,0.0770316,0.014534,-0.106468,-0.0439453,0.0720215,0.0190353,0.436783,-0.0217819,-0.0627136,-0.275383,-0.34832,-0.138893,0.0732803,-0.0408554,0.211525,0.026474,0.272484,0.0281143,0.253677,0.180511,-0.0667572,0.209045,0.210991,-0.159569,-0.21946,0.0680923,-0.202293,-0.127983,0.183983,-0.0413895,0.0969696,-0.116806,-0.0654221,0.00305176
339,7,2.40589,-1.53255,4.23962,867.719,-218.013,490.037,202.9,-304.365,-0.0795827,0,0,0,0,0,0,198.84,300.407,0.0558755,-0.00396729,-0.00305176,-0.000305176,-0.00305176,-0.0125122,-0.00854492,2.52914,-2.08024,8.94536,858.093,-1463.3,286.47,-199.669,-305.422,-0.130892,0.00823975,0.0456238,0.058136,0.0315857,0.00961304,0.00686646,0.01297,0.0108337,-0.0270081,0.128937,0.139313,-0.253601,-0.0260925,0.128479,-0.0448608,0.137634,2.67624,2.6593,0.0100708,0.010376,-0.0128174,-0.0012207,-0.00915527,-0.00442505,0.00671387,-0.0143433,-0.0613403,-0.0476074,0.00595093,-0.0378418,3.40935,-2.39279,3.21824,949.596,-960.733,358.813,207.643,-1058.39,0.0770316,0.0295258,-0.019455,-0.0395203,-0.00297546,0.0210953,0.413094,-0.0550079,-0.0857162,-0.233307,-0.241394,-0.153008,0.0414276,-0.039711,0.202103,-0.00385284,0.2565,0.0133896,0.234032,0.199852,-0.0245667,0.155716,0.207291,-0.0915527,-0.228424,0.0526047,-0.211258,-0.145226,0.209198,-0.0204849,0.0461197,-0.0948715,-0.0260544,0.0125122
339,8,0,0,0,0,0,0,202.9,-304.365,-0.0795827,2.53944,-1.95688,5.5314,543.061,-1763.59,568.386,198.84,300.407,0.0558755,-0.00762939,-0.00549316,-0.00274658,-0.00244141,-0.0137329,-0.00823975,2.79648,-2.52218,7.88146,769.629,-1533.53,267.854,-199.669,-305.422,-0.130892,0.00152588,0.0363159,0.0509644,0.058136,-0.000152588,0.00671387,0.00808716,0.0361633,0.00442505,0.13382,0.0994873,-0.266266,0.0112915,0.131226,-0.0521851,0.124054,2.65488,2.68448,0.0222778,-0.0164795,0.00488281,0.0151062,0.00564575,0.00396729,-0.00152588,0.0253296,-0.00808716,0.0100708,-0.0143433,-0.0242615,3.41212,-1.67755,5.71986,1085.2,-782.545,414.904,207.643,-1058.39,0.0770316,0.0528717,-0.00221252,-0.069809,0.0170135,-0.0397491,0.410843,0.00141144,-0.0503922,-0.238457,-0.235443,-0.13092,0.0300598,-0.052948,0.139961,0.0259399,0.315437,0.0043869,0.252151,0.185471,-0.0691223,0.144539,0.247154,-0.120506,-0.225105,0.076828,-0.165787,-0.160904,0.199585,-0.0291061,0.0355911,-0.0811768,-0.0388336,-0.000305176
339,9,0,0,0,0,0,0,202.9,-304.365,-0.0795827,1.74979,-2.2274,5.17748,629.674,-1482.82,382.529,198.84,300.407,0.0558755,-0.00488281,-0.00640869,-0.00244141,-0.00305176,-0.0112915,-0.00518799,3.59306,-2.34342,7.52715,859.059,-1883.28,416.708,-199.669,-305.422,-0.130892,0.00534058,0.0134277,0.0662231,0.0480652,-0.0483704,0.0244141,0.0364685,0.0341797,-0.00167847,0.131378,0.123901,-0.247498,-0.0108337,0.133057,-0.0579834,0.136719,2.69241,2.66357,-0.0205994,-0.00991821,0.00854492,0.00701904,-0.0111389,-0.00244141,0.015564,0.0558472,-0.0688171,0.0866699,0.0137329,0.00183105,4.03691,-1.77006,3.57397,949.574,-960.766,339.959,207.643,-1058.39,0.0770316,0.0525665,-0.0318527,-0.030365,0.00278473,-0.0221252,0.46875,-0.0385284,-0.0927353,-0.214386,-0.220833,-0.134926,0.0511551,-0.0421524,0.152512,0.0196838,0.245934,0.00686646,0.161362,0.179863,-0.0806046,0.152283,0.196342,-0.133934,-0.179482,0.0348663,-0.19886,-0.124092,0.186348,-0.0162506,0.030098,-0.147018,-0.00244141,0.015564
340,0,0,0,0,0,0,0,202.9,-304.365,-0.0795827,0,0,0,0,0,0,198.84,300.407,0.0558755,-0.00549316,-0.00427246,-0.00152588,-0.00335693,-0.0128174,-0.00793457,3.5054,-2.6091,7.17245,725.717,-1708.64,305.057,-199.669,-305.422,-0.130892,0.0204468,0.0202942,0.0393677,0.0788879,-0.09552,0.0152588,-0.00991821,-0.00259399,-0.0100708,0.133057,0.107422,-0.272675,-0.00808716,0.15152,-0.0559998,0.121918,2.66922,2.66357,0.0164795,-0.0326538,0.00457764,0.0163269,0.00305176,0.0210571,-0.0050354,0.0709534,0.00259399,0.0810242,-0.00411987,-0.0259399,0,0,0,0,0,0,207.643,-1058.39,0.0770316,0.0456238,0.0315857,-0.0100327,0.0104141,-0.0523376,0.395508,-0.0646591,-0.0519943,-0.229607,-0.235519,-0.115776,0.057106,-0.0383759,0.146866,0.00816345,0.245552,0.0897217,0.11776,0.185242,-0.083046,0.142479,0.2491,-0.130463,-0.218201,0.069313,-0.135422,-0.173149,0.190773,-0.0112152,0.0454712,-0.113754,-0.0468063,0.00793457
340,1,0,0,0,0,0,0,202.9,-304.365,-0.0795827,1.74814,-1.87252,4.82393,366.775,-1694.46,493.915,198.84,300.407,0.0558755,-0.00488281,-0.00518799,-0.00213623,-0.0012207,-0.0131226,-0.00701904,2.70688,-2.43349,9.30031,991.348,-1602.94,398.11,-199.669,-305.422,-0.130892,-0.00595093,0.00564575,0.0419617,0.0698853,0.0132751,-0.0125122,-0.00106812,0.0306702,-0.00732422,0.0997925,0.105896,-0.248413,-0.0253296,0.124817,-0.065918,0.127716,2.65945,2.67303,-0.00457764,-0.0108337,0.00228882,0.0241089,-0.0112915,-0.0205994,-0.0263977,0.06073,-0.0177002,0.00778198,0.00366211,0.0141907,0,0,0,0,0,0,207.643,-1058.39,0.0770316,0.0780869,0.00919342,-0.025444,0.0166702,-0.0512314,0.429916,-0.0424576,-0.0918198,-0.258217,-0.209923,-0.147972,0.0609589,-0.0129318,0.144501,0.0237274,0.242462,0.0493622,0.12207,0.217667,-0.0627136,0.147285,0.235634,-0.156898,-0.231018,0.0526428,-0.173073,-0.168686,0.253983,-0.0144958,0.0122833,-0.101929,-0.0383759,0.0119019
340,2,2.4958,-1.79722,4.23989,779.629,-218.491,434.105,202.9,-304.365,-0.0795827,0,0,0,0,0,0,198.84,300.407,0.0558755,-0.00457764,-0.00396729,0.0012207,-0.00244141,-0.0131226,-0.00793457,2.97419,-2.61042,7.17213,857.863,-1393.27,379.376,-199.669,-305.422,-0.130892,0.0215149,0.00869751,0.0230408,0.0563049,0.235748,0.0088501,-0.0216675,-0.00518799,-0.00152588,0.11673,0.107269,-0.281067,-0.0279236,0.13855,-0.0585938,0.109863,2.65793,2.65198,0.015564,0.00183105,-0.0163269,0.0125122,-0.00289917,0.0149536,0.00473022,-0.0160217,-0.0320435,-0.0088501,0.00808716,-0.0189209,3.49924,-1.6813,3.57444,949.581,-996.379,340.022,207.643,-1058.39,0.0770316,0.0603485,0.00423431,0.00156403,0.0260162,-0.0435638,0.408936,-0.0699615,-0.0507355,-0.239677,-0.23098,-0.137596,0.0684738,-0.0494766,0.168152,0.032692,0.238075,0.0485229,0.164833,0.205688,-0.103722,0.173988,0.21328,-0.113602,-0.260239,0.0340271,-0.153351,-0.151443,0.222321,-0.0285339,0.0534058,-0.079689,-0.0416183,0.0128174
340,3,0,0,0,0,0,0,202.9,-304.365,-0.0795827,0,0,0,0,0,0,198.84,300.407,0.0558755,-0.00549316,-0.00549316,-0.00152588,-0.00396729,-0.0134277,-0.00579834,2.53219,-2.96521,7.52672,592.373,-1568.95,342.103,-199.669,-305.422,-0.130892,0.00869751,-0.00869751,0.027771,0.0679016,0.289917,-0.00915527,0.00274658,-0.00671387,-0.0170898,0.111694,0.109711,-0.266876,-0.012207,0.114136,-0.0799561,0.111389,2.659,2.66937,-0.0265503,0.0326538,-0.0109863,0.00717163,-0.0274658,-0.00976562,-0.000305176,-0.0152588,-0.00701904,-0.0335693,-0.0221252,-0.00640869,0,0,0,0,0,0,207.643,-1058.39,0.0770316,0.0665283,0.0196838,-0.0342941,-0.00205994,-0.00881195,0.437317,-0.0325012,-0.0836945,-0.302086,-0.216408,-0.115891,0.0521469,-0.0382996,0.18219,0.0175476,0.272408,-0.00423431,0.105553,0.201111,-0.0532913,0.197487,0.181084,-0.120811,-0.243187,0.0358963,-0.201454,-0.154228,0.20565,-0.00293732,0.0503159,-0.106659,-0.00507355,0.00213623
340,4,2.93839,-2.05956,5.30304,868.523,-359.25,434.306,202.9,-304.365,-0.0795827,2.00837,-1.24984,5.17742,852.124,-1972.23,550.053,198.84,300.407,0.0558755,-0.00579834,-0.00305176,-0.00244141,-0.00457764,-0.015564,-0.00793457,3.06274,-2.78687,7.88171,769.245,-1428.46,472.263,-199.669,-305.422,-0.130892,0.0141907,0.01297,-0.00915527,0.045929,0.255737,-0.0143433,0.0088501,-0.0102234,-0.0115967,0.0746155,0.0860596,-0.272064,-0.032959,0.123749,-0.0520325,0.0549316,2.64587,2.65533,0.000915527,0.0627136,-0.0183105,-0.0205994,0.00228882,0.0184631,-0.000152588,-0.08255,-0.0125122,0.0419617,0.00900269,-0.0276184,0,0,0,0,0,0,207.643,-1058.39,0.0770316,0.0396729,-0.0273132,0.0289917,-0.0583267,-0.0100327,0.427322,-0.0277328,-0.0534821,-0.20401,-0.217247,-0.172539,0.0908661,-0.0338364,0.166016,0.042038,0.287247,0.0221252,0.142136,0.183449,-0.0955582,0.189629,0.215302,-0.11158,-0.222855,0.0421906,-0.152054,-0.144691,0.146065,-0.0275421,0.0510406,-0.0948715,0.0222397,0.000305176
340,5,2.58384,-1.7966,4.59414,1132.5,-251.991,434.645,202.9,-304.365,-0.0795827,1.83748,-2.13827,4.82405,850.994,-1761.96,568.587,198.84,300.407,0.0558755,-0.00518799,-0.00610352,-0.00213623,-0.00457764,-0.0137329,-0.00823975,3.15022,-2.8744,10.0102,769.517,-1533.47,453.712,-199.669,-305.422,-0.130892,0.0286865,-0.0189209,-0.040741,0.11322,0.0772095,-0.0169373,0.0141907,0.00701904,-0.00686646,0.0762939,0.083313,-0.251312,-0.0241089,0.0967407,-0.0712585,0.0567627,2.65549,2.65549,-0.027771,0.0349426,-0.0128174,0.0311279,-0.00747681,-0.0158691,-0.00305176,-0.0456238,-0.0283813,0.0190735,-0.0296021,-0.000610352,0,0,0,0,0,0,207.643,-1058.39,0.0770316,0.0301361,0.00499725,-0.00823975,-0.0843811,0.00465393,0.423813,-0.0170898,-0.0696564,-0.21801,-0.208664,-0.108528,0.0689697,-0.0900269,0.162621,0.0187302,0.274849,0.00984192,0.121613,0.191154,-0.0794601,0.144043,0.234985,-0.128632,-0.21862,0.081749,-0.206833,-0.141068,0.239563,-0.0141144,0.0248337,-0.108566,-0.0766754,-0.0131226
340,6,0,0,0,0,0,0,202.9,-304.365,-0.0795827,0,0,0,0,0,0,198.84,300.407,0.0558755,-0.00518799,-0.00457764,-0.000305176,-0.00427246,-0.0152588,-0.00640869,3.23827,-2.16728,7.88161,680.87,-1498.74,304.961,-199.669,-305.422,-0.130892,0.0370789,0.00183105,-0.0239563,0.119171,-0.091095,0.0180054,0.00686646,-0.00991821,0.00747681,0.0874329,0.0765991,-0.257111,-0.0241089,0.110016,-0.0424194,0.0566101,2.67014,2.6619,0.0167847,0.0793457,-0.00991821,0.00808716,-0.0198364,0.0123596,0.0169373,-0.0556946,-0.0106812,-0.00823975,0.0296021,-0.0286865,3.49922,-1.59245,3.57428,904.448,-1067.55,377.907,207.643,-1058.39,0.0770316,0.0517654,-0.0109863,0.00888824,-0.039444,-0.0403595,0.419083,-0.0341797,-0.0745773,-0.198975,-0.193405,-0.0977707,0.0637054,-0.0452423,0.137024,-0.0228119,0.257454,0.0318146,0.128365,0.138092,-0.081749,0.166092,0.21843,-0.113564,-0.215645,0.0303268,-0.189056,-0.117073,0.248146,-0.0450134,0.0327301,-0.0814056,-0.0523758,-0.0265503
340,7,0,0,0,0,0,0,202.9,-304.365,-0.0795827,0,0,0,0,0,0,198.84,300.407,0.0558755,-0.00488281,-0.00396729,-0.00152588,-0.00366211,-0.0137329,-0.0088501,3.15148,-2.69843,7.17227,769.727,-1568.54,249.28,-199.669,-305.422,-0.130892,0.0250244,-0.00946045,-0.0219727,0.131836,-0.11322,0.0222778,0.0131226,0.0160217,0.00137329,0.070343,0.10498,-0.245361,-0.00396729,0.122833,-0.0471497,0.0514221,2.64694,2.65656,0.0137329,-0.0117493,-0.00579834,0.0332642,-0.0186157,-0.00320435,0.0062561,-0.0204468,0.0262451,0.00106812,-0.0157166,-0.00427246,3.50218,-1.85461,6.07762,723.778,-1316.8,416.264,207.643,-1058.39,0.0770316,0.0266266,0.0380325,0.000114441,-0.0531006,-0.0158691,0.430107,-0.068512,-0.0925446,-0.233078,-0.220757,-0.0761795,0.092392,-0.0360107,0.145721,0.00846863,0.234947,0.0629425,0.0672913,0.148697,-0.0534821,0.152855,0.216751,-0.136948,-0.231667,0.0598145,-0.15007,-0.174217,0.217514,0.0204086,0.0287247,-0.122604,-0.0344086,-0.0125122
340,8,2.93899,-1.97154,4.59475,955.959,-182.342,322.744,202.9,-304.365,-0.0795827,2.10006,-1.87073,4.4707,675.008,-1762.88,605.641,198.84,300.407,0.0558755,-0.00610352,-0.00518799,-0.00183105,-0.00335693,-0.0137329,-0.0088501,3.3279,-2.52098,7.52705,946.698,-1463.06,360.866,-199.669,-305.422,-0.130892,0.0167847,0.00350952,-0.0154114,0.133362,-0.174255,0.0164795,0.000762939,0.027771,-0.0167847,0.0798035,0.100708,-0.252533,-0.0166321,0.122375,-0.0401306,0.059967,2.67044,2.64908,0.0109863,0.0318909,-0.0119019,0.00259399,-0.0416565,0.0274658,0.0270081,-0.0285339,-0.0169373,0.00350952,0.0343323,0.00549316,0,0,0,0,0,0,207.643,-1058.39,0.0770316,0.0619125,0.00514984,0.0104141,-0.0260925,-0.0185394,0.433197,-0.0498199,-0.0907898,-0.251923,-0.196152,-0.117874,0.0549316,-0.0160599,0.151634,0.0263977,0.268784,0.0304794,0.0924683,0.185966,-0.100174,0.156479,0.23735,-0.127525,-0.202789,0.0349426,-0.19249,-0.144234,0.281105,-0.03582,0.0513458,-0.0806046,-0.0317383,0.00457764
340,9,2.4913,-1.53105,6.36448,1087.07,-5.07233,490.258,202.9,-304.365,-0.0795827,0,0,0,0,0,0,198.84,300.407,0.0558755,-0.00396729,-0.00427246,-0.000915527,-0.00183105,-0.0152588,-0.00640869,3.23872,-2.52085,8.59119,858.581,-1673.29,342.297,-199.669,-305.422,-0.130892,0.0314331,0.0161743,0.0152588,0.138855,-0.162659,0.00762939,0.0109863,0.0335693,0.00564575,0.0820923,0.109558,-0.243988,-0.00839233,0.114899,-0.0668335,0.0291443,2.66464,2.67197,0.0184631,-0.0215149,0.00106812,0.030365,0.00152588,-0.00564575,-0.0158691,0.0196838,0.0119019,-0.00167847,-0.00473022,-0.00610352,0,0,0,0,0,0,207.643,-1058.39,0.0770316,0.0376511,-0.0134659,0.0421906,-0.0447464,-0.0102234,0.482903,-0.0278091,-0.0653458,-0.2248,-0.203629,-0.116692,0.0959778,-0.0463104,0.146866,0.0403976,0.262489,0.0778961,0.0517273,0.156059,-0.073967,0.217819,0.223885,-0.146446,-0.221863,0.0401688,-0.170975,-0.150261,0.235901,0.0102234,0.0730515,-0.136642,-0.051918,-0.00640869
341,0,0,0,0,0,0,0,202.9,-304.365,-0.0795827,0,0,0,0,0,0,198.84,300.407,0.0558755,-0.00457764,-0.00549316,-0.000305176,-0.00274658,-0.0143433,-0.00579834,3.15106,-2.6982,7.88173,813.702,-1463.38,397.958,-199.669,-305.422,-0.130892,0.012207,0.0227356,0.102997,0.134277,-0.0527954,0.0123596,0.017395,0.0144958,-0.020752,0.0788879,0.104523,-0.245972,-0.0151062,0.112305,-0.0588989,0.0480652,2.67578,2.63092,-0.00259399,0.00900269,0.00320435,0.00961304,-0.0350952,0.0212097,0.0221252,0.020752,0.00656128,-0.0296021,0.0415039,0.0138855,0,0,0,0,0,0,207.643,-1058.39,0.0770316,0.0585556,0.0327301,-0.0206757,-0.0636292,0.0235748,0.42572,-0.0427246,-0.0410843,-0.199699,-0.186462,-0.108414,0.0829697,-0.0572968,0.181427,-0.0114822,0.248871,0.018692,0.0540543,0.182457,-0.0908661,0.154724,0.242538,-0.103683,-0.201988,0.0317764,-0.190887,-0.158997,0.261955,-0.0110245,0.0460815,-0.0780487,-0.0171661,-0.0109863
341,1,2.84802,-1.70651,5.30273,956.279,-288.176,471.603,202.9,-304.365,-0.0795827,0,0,0,0,0,0,198.84,300.407,0.0558755,-0.00671387,-0.00427246,-0.0012207,-0.00488281,-0.0143433,-0.00701904,2.88479,-2.34518,7.52673,724.867,-1393.59,416.468,-199.669,-305.422,-0.130892,0.00427246,-0.00305176,0.0717163,0.130615,0.0779724,0.0164795,-0.0154114,0.0190735,-0.0344849,0.0802612,0.0941467,-0.265045,-0.0341797,0.0762939,-0.0453186,0.00213623,2.6474,2.66006,0.018158,-0.0134277,-0.0161743,0.0177002,-0.00900269,0.00183105,-0.0170898,0.0384521,0.0759888,-0.0149536,-0.00961304,-0.0157166,0,0,0,0,0,0,207.643,-1058.39,0.0770316,0.0674057,0.00297546,0.00946045,-0.0893021,0.00610352,0.408211,-0.0345612,-0.0805664,-0.204926,-0.124626,-0.0989151,0.18013,-0.0463104,0.199089,0.0258255,0.259781,0.0285339,0.0786591,0.144272,-0.117264,0.169945,0.220451,-0.124283,-0.232048,0.0798416,-0.167274,-0.18055,0.216446,-0.025444,0.0543976,-0.0891876,-0.0253296,-0.00427246
341,2,0,0,0,0,0,0,202.9,-304.365,-0.0795827,2.27732,-2.22459,5.17783,850.695,-1691.9,457.062,198.84,300.407,0.0558755,-0.00671387,-0.00640869,-0.00244141,-0.00457764,-0.0131226,-0.00640869,2.79453,-2.07947,9.30025,636.751,-1603.82,397.898,-199.669,-305.422,-0.130892,-0.0106812,-0.0280762,0.0646973,0.124359,0.0637817,0.0234985,0.0228882,0.0382996,-0.0189209,0.0924683,0.100861,-0.253754,-0.0469971,0.0827026,-0.0622559,-0.00488281,2.67273,2.65411,0.00427246,-0.0195312,0.0230408,0.0241089,-0.0378418,-0.0393677,0.0233459,0.0566101,0.0393677,-0.0566101,0.0144958,0.0233459,3.5884,-1.5042,3.21647,859.143,-925.237,302.294,207.643,-1058.39,0.0770316,0.0267792,0.0366211,0.0153732,-0.106239,0.0101852,0.410995,-0.0288391,-0.0771713,-0.160637,-0.0978088,-0.0807571,0.183182,-0.096283,0.190849,0.0390244,0.246353,0.0310516,0.109749,0.170631,-0.108871,0.142059,0.200996,-0.0954056,-0.25383,0.070343,-0.151024,-0.118217,0.242386,-0.0358582,0.00968933,-0.115623,-0.0364304,-0.00701904
341,3,0,0,0,0,0,0,202.9,-304.365,-0.0795827,1.83795,-2.22701,4.82408,763.062,-1762.44,494.191,198.84,300.407,0.0558755,-0.00518799,-0.00640869,-0.00213623,-0.00396729,-0.0137329,-0.00701904,3.06359,-2.78733,6.46278,858.298,-1568.28,379.433,-199.669,-305.422,-0.130892,0.0149536,-0.000305176,0.0611877,0.144806,0.0613403,0.00198364,-0.0106812,0.0309753,-0.0120544,0.105286,0.102234,-0.252991,-0.0511169,0.0672913,-0.0816345,-0.0227356,2.64328,2.659,0.0205994,-0.00778198,-0.0157166,0.0137329,0.00183105,0.0100708,-0.00137329,0.0442505,0.0491333,-0.0340271,-0.0247192,-0.0137329,3.40959,-1.50361,3.57423,813.988,-996.438,321.325,207.643,-1058.39,0.0770316,0.0376892,0.0386429,0.0179672,-0.0981522,-0.00457764,0.360069,-0.0226593,-0.0692368,-0.18425,-0.118446,-0.0712585,0.170975,-0.0576782,0.174904,-0.0286102,0.235176,0.0263977,0.0896072,0.149422,-0.1194,0.194092,0.242004,-0.186234,-0.245514,0.0550842,-0.148926,-0.0813293,0.211983,0.0115585,0.0363922,-0.0875473,-0.090065,0.0137329
341,4,0,0,0,0,0,0,202.9,-304.365,-0.0795827,2.01214,-1.8712,4.47064,675.292,-1797.96,456.972,198.84,300.407,0.0558755,-0.00579834,-0.00518799,-0.00183105,-0.00335693,-0.0140381,-0.00640869,3.24002,-2.78655,7.52708,902.514,-1533.15,416.62,-199.669,-305.422,-0.130892,0.0012207,-0.00976562,0.0730896,0.15152,0.071106,0.0178528,-0.0062561,0.0382996,-0.0105286,0.087738,0.107422,-0.254517,-0.0418091,0.085144,-0.0405884,0.00961304,2.64648,2.65915,-0.00137329,0.010376,0.0299072,0.0137329,-0.0382996,-0.0305176,0.0216675,0.110626,-0.0119019,-0.0701904,0.0247192,0.0248718,3.32047,-1.85842,3.93251,814.055,-889.467,396.553,207.643,-1058.39,0.0770316,0.00785828,0.0589752,0.0144958,-0.063858,0.00968933,0.402107,-0.0588226,-0.113144,-0.184364,-0.122147,-0.0732803,0.170517,-0.0427628,0.209503,0.0295639,0.228539,0.0404739,0.0416183,0.16571,-0.0685501,0.184784,0.223885,-0.109062,-0.26516,0.0382996,-0.161133,-0.136299,0.237617,0.0485992,0.0348663,-0.114021,-0.0590515,-0.00335693
341,5,0,0,0,0,0,0,202.9,-304.365,-0.0795827,0,0,0,0,0,0,198.84,300.407,0.0558755,-0.00457764,-0.00549316,-0.000915527,-0.00396729,-0.015564,-0.00854492,3.3268,-2.07873,7.5269,858.646,-1708.28,379.479,-199.669,-305.422,-0.130892,0.00793457,-0.00762939,0.0663757,0.11795,0.0831604,0.0253296,0.00656128,0.0401306,-0.00717163,0.114288,0.110931,-0.26123,-0.0138855,0.093689,-0.0608826,0,2.66174,2.6506,0.0160217,0.0267029,0.0108337,-0.00549316,-0.0219727,0.0453186,0.00793457,0.0473022,-0.0164795,-0.0440979,0.0158691,0.00320435,0,0,0,0,0,0,207.643,-1058.39,0.0770316,-0.00038147,0.00240326,0.00221252,-0.0426483,0.0151825,0.419884,-0.0285339,-0.0679779,-0.221062,-0.158348,-0.0682831,0.165443,-0.0227737,0.200119,-0.00694275,0.225601,0.0383377,0.0463867,0.188522,-0.145645,0.172691,0.248222,-0.116005,-0.25425,0.0584412,-0.141563,-0.136833,0.258179,-0.0521088,0.0283432,-0.0297165,-0.0708389,0.0112915
341,6,0,0,0,0,0,0,202.9,-304.365,-0.0795827,0,0,0,0,0,0,198.84,300.407,0.0558755,-0.00457764,-0.00701904,-0.000305176,-0.000610352,-0.0137329,-0.00549316,3.50471,-1.99042,5.75332,637.09,-1708.87,267.832,-199.669,-305.422,-0.130892,-0.00732422,0.00900269,0.0732422,0.090332,0.0724792,0.0416565,0.0273132,0.045166,-0.0132751,0.100555,0.100708,-0.245972,-0.00259399,0.0862122,-0.0526428,0.0012207,2.66434,2.68082,-0.0146484,0.0105286,0.0190735,0.0209045,-0.030365,-0.01297,0.00595093,0.0804138,-0.0502014,-0.0494385,-0.0120544,0.0386047,0,0,0,0,0,0,207.643,-1058.39,0.0770316,0.0144577,0.00247955,0.00713348,-0.0884247,0.00968933,0.448418,-0.0436783,-0.0780487,-0.186691,-0.111313,-0.0614166,0.147438,-0.065918,0.164452,0.0354385,0.244751,0.0193024,0.0514984,0.16819,-0.107727,0.250168,0.188408,-0.13279,-0.197639,0.0374603,-0.153847,-0.11322,0.229378,-0.00843048,0.0489044,-0.126457,-0.0732803,-0.00610352
341,7,0,0,0,0,0,0,202.9,-304.365,-0.0795827,0,0,0,0,0,0,198.84,300.407,0.0558755,-0.00457764,-0.00671387,0.0012207,-0.00244141,-0.0128174,-0.00732422,3.32812,-2.60943,7.52708,769.573,-1533.5,360.783,-199.669,-305.422,-0.130892,0.0192261,0.0175476,0.0616455,0.0776672,0.0827026,0.0334167,0.0193787,0.0447083,-0.0102234,0.116272,0.123138,-0.266113,-0.0224304,0.0869751,-0.0447083,0.00717163,2.66815,2.65533,0.0270081,0.00976562,0.00198364,-0.0137329,-0.00717163,0.0119019,0.0314331,0.0495911,-0.0369263,-0.0193787,0.00701904,-0.000305176,3.14125,-1.85845,3.93272,814.155,-1067.43,453.429,207.643,-1058.39,0.0770316,0.02388,0.0158691,-0.00404358,-0.117378,0.0300217,0.402222,-0.0417328,-0.0275803,-0.190392,-0.119019,-0.098877,0.177498,-0.0784683,0.187492,-0.00240326,0.202942,0.0542831,0.00495911,0.17952,-0.132294,0.19783,0.229301,-0.0714874,-0.267372,0.0353622,-0.144691,-0.133514,0.208817,-0.0105667,0.0611115,-0.086937,-0.0156021,-0.015564
341,8,0,0,0,0,0,0,202.9,-304.365,-0.0795827,0,0,0,0,0,0,198.84,300.407,0.0558755,-0.00640869,-0.00549316,-0.000610352,-0.00305176,-0.0140381,-0.00579834,3.32792,-2.78598,8.59133,813.409,-1323.4,304.983,-199.669,-305.422,-0.130892,-0.00488281,0.0248718,0.0656128,0.0866699,0.0715637,0.0291443,0.0135803,0.0476074,0.0088501,0.122681,0.096283,-0.25238,-0.0552368,0.050354,-0.0466919,-0.0704956,2.67166,2.67746,-0.00549316,-0.01297,0.0379944,0.0405884,-0.00686646,-0.00610352,-0.014801,0.019989,0.00640869,-0.0427246,0.00335693,-0.00137329,3.67894,-2.03606,3.93241,678.414,-747.108,358.753,207.643,-1058.39,0.0770316,0.0763702,0.0321198,0.018692,-0.0894165,0.0136566,0.38166,-0.00671387,-0.0799942,-0.180397,-0.0665665,-0.0757217,0.194778,-0.0858307,0.187645,-0.00984192,0.256767,0.0297928,0.027504,0.192223,-0.142822,0.207024,0.205078,-0.137596,-0.215302,0.104256,-0.16468,-0.115623,0.235481,-0.0791931,0.043335,-0.0722885,-0.0697327,0.012207
341,9,0,0,0,0,0,0,202.9,-304.365,-0.0795827,0,0,0,0,0,0,198.84,300.407,0.0558755,-0.00762939,-0.00640869,0.00152588,-0.00244141,-0.0164795,-0.00701904,3.32551,-1.90136,8.94578,769.551,-1533.49,397.955,-199.669,-305.422,-0.130892,-0.00961304,0.0282288,0.0062561,0.0563049,-0.0480652,0.0184631,0.0160217,0.000457764,-0.014801,0.136566,0.124512,-0.260315,-0.0805664,0.0511169,-0.0524902,-0.0653076,2.67242,2.66846,0.0178528,0.0115967,0.019989,-0.0012207,0.00289917,0.0338745,0.0282288,-0.0328064,0.0241089,0.0349426,0.020752,0.00732422,3.4988,-1.59308,3.21673,1085.2,-1031.9,377.634,207.643,-1058.39,0.0770316,0.0250244,0.028801,0.0188828,-0.125542,0.0230026,0.430603,-0.0240326,-0.0722504,-0.139122,-0.106163,-0.102158,0.222511,-0.0566101,0.207214,0.00209808,0.252571,0.0272751,0.0791168,0.182838,-0.121574,0.180817,0.214615,-0.125999,-0.259857,0.0453949,-0.178719,-0.0947189,0.247765,-0.026741,-0.016861,-0.118027,-0.0585175,0.00457764
342,0,2.494,-1.44372,4.23971,1132.25,-181.423,360.207,202.9,-304.365,-0.0795827,0,0,0,0,0,0,198.84,300.407,0.0558755,-0.0109863,-0.00701904,0.00213623,-0.00183105,-0.0164795,-0.00457764,3.5054,-2.6091,7.17245,769.888,-1673.49,416.586,-199.669,-305.422,-0.130892,0.020752,0.00579834,0.0257874,0.0822449,-0.0672913,0.00747681,-0.00930786,-0.0238037,-0.0131226,0.124512,0.114288,-0.229645,-0.0596619,0.0437927,-0.0765991,-0.0784302,2.64954,2.66495,0.0260925,-0.0187683,0.0178528,0.01297,-0.00320435,0.00320435,0.00411987,-0.00991821,0.0520325,0.0202942,-0.00427246,0.0460815,3.23053,-2.30334,3.57584,1039.92,-1103.3,283.542,207.643,-1058.39,0.0770316,0.00892639,0.0688934,0.0318146,-0.0929642,0.0183105,0.381699,-0.0309372,-0.0654984,-0.17086,-0.0784683,-0.0351715,0.188675,-0.0764084,0.197411,0.00946045,0.267525,0.0230026,0.111313,0.165596,-0.0910568,0.210342,0.221939,-0.142021,-0.306816,0.0695038,-0.185394,-0.141068,0.240669,-0.00198364,0.00938416,-0.108833,-0.0606918,0.0106812
342,1,3.02725,-1.70631,3.88651,1219.98,-110.34,416.104,202.9,-304.365,-0.0795827,4.65937,-2.74634,-2.95023,17.0216,-2081.86,307.93,-505.961,294.577,-0.404528,-0.0149536,-0.00823975,0.00457764,0.0012207,-0.0164795,-0.00396729,2.88609,-2.61087,6.46262,902.721,-1603.17,360.886,-199.669,-305.422,-0.130892,-0.0108337,-0.0012207,0.0465393,0.057373,-0.10849,-0.000457764,0.00152588,-0.0358582,-0.0296021,0.119781,0.100861,-0.24704,-0.0674438,0.0430298,-0.0624084,-0.0743103,2.66983,2.6561,-0.00839233,0.0360107,0.00610352,-0.0242615,0.00747681,0.00686646,0.0309753,-0.0289917,0.0643921,-0.00213623,0.0137329,0.0152588,0,0,0,0,0,0,207.643,-1058.39,0.0770316,0.0360107,0.0316238,0.00453949,-0.104675,0.0209045,0.407333,-0.0309372,-0.092392,-0.174103,-0.0995255,-0.079155,0.188217,-0.0324249,0.207367,-0.00396729,0.249062,-0.0173187,0.105476,0.13855,-0.102882,0.197754,0.243187,-0.107002,-0.250473,0.0272751,-0.213585,-0.126343,0.234489,-0.0136185,-0.00205994,-0.07267,-0.0409698,0.00549316
342,2,2.93358,-1.52861,6.71926,1000.75,-358.565,453.103,202.9,-304.365,-0.0795827,5.80399,-2.82942,-4.71679,-247.484,-1943.15,28.953,-212.736,352.822,-0.226129,-0.0189209,-0.00854492,0.00610352,0.00305176,-0.0152588,0.000610352,3.06292,-2.34532,5.75317,902.578,-1568.14,453.803,-199.669,-305.422,-0.130892,0.00335693,0.00823975,0.0247192,0.0308228,-0.0694275,-0.00671387,-0.0253296,-0.0247192,0.00457764,0.142212,0.105438,-0.275574,-0.0656128,0.0608826,-0.0614929,-0.0747681,2.65198,2.65717,0.0215149,-0.0088501,0.000305176,0.0363159,0.0216675,-0.0163269,0.00228882,-0.0497437,0.125885,-0.00778198,0.00350952,0.000915527,3.858,-1.23633,3.93079,1039.92,-1032.04,302.271,207.643,-1058.39,0.0770316,-0.0063324,0.0135422,0.0192261,-0.102196,0.00255585,0.416412,-0.0183487,-0.0570297,-0.166321,-0.142441,-0.08255,0.195312,-0.0463867,0.194054,0.0270462,0.25013,0.0194931,0.040741,0.122566,-0.103073,0.195427,0.25116,-0.165138,-0.229607,0.0683975,-0.180435,-0.14595,0.208626,-0.0183487,0.0207901,-0.0663757,-0.0920105,0.0119019
342,3,0,0,0,0,0,0,202.9,-304.365,-0.0795827,7.82846,-2.37663,-11.7849,-379.058,-2013.95,-8.28597,28.0302,332.557,-0.0636088,-0.0259399,-0.00701904,0.012207,0.00396729,-0.0158691,0.0012207,3.23937,-2.60953,7.88176,725.63,-1673.64,305.045,-199.669,-305.422,-0.130892,0.00396729,0.0183105,0.0398254,0.0288391,-0.0648499,-0.0111389,0.0166321,0.000915527,-0.0134277,0.0987244,0.119324,-0.221405,-0.0656128,0.0357056,-0.070343,-0.0828552,2.65762,2.64954,-0.0274658,-0.00427246,0.0299072,0.00320435,-0.000305176,0.00335693,0.0276184,-0.00427246,0.115814,-0.0756836,0.0354004,0.0369263,0,0,0,0,0,0,207.643,-1058.39,0.0770316,0.0328827,-0.0012207,-0.0438309,-0.118294,0.0197601,0.425758,-0.0332642,-0.0806046,-0.175972,-0.0895309,-0.0873184,0.146141,-0.0650787,0.189018,-0.0214767,0.227966,0.0165176,0.0747681,0.163307,-0.133553,0.167847,0.235672,-0.129089,-0.212593,0.0577164,-0.198555,-0.118217,0.24128,-0.0482559,-0.0156403,-0.0759506,-0.0509262,-0.00396729
342,4,0,0,0,0,0,0,202.9,-304.365,-0.0795827,7.91419,-1.22395,-17.7941,-1127.93,-1842.67,139.861,95.3144,363.77,-0.0268767,-0.0262451,-0.00305176,0.017395,0.00915527,-0.0143433,-0.0012207,3.41556,-2.25529,7.88175,947.371,-1743.06,398.13,-199.669,-305.422,-0.130892,0.0114441,0.0222778,0.038147,0.0848389,-0.00747681,0.00900269,0.0215149,-0.00717163,-0.000305176,0.153046,0.11322,-0.252533,-0.0595093,0.0682068,-0.045929,-0.0822449,2.65182,2.65976,0.0311279,-0.00350952,-0.0111389,-0.000762939,0.0419617,0.0138855,-0.00549316,-0.00335693,0.091095,-0.090332,0.0227356,-0.00823975,3.49885,-1.85964,3.2172,904.36,-1067.68,302.492,207.643,-1058.39,0.0770316,0.0284576,0.0423431,0.0320816,-0.117455,-0.0141144,0.381622,-0.051918,-0.0347519,-0.171432,-0.0909042,-0.0724792,0.195312,-0.0864029,0.15831,-0.0268555,0.214157,0.0572968,0.0885773,0.125656,-0.103455,0.20462,0.193176,-0.138474,-0.283737,0.0626373,-0.119591,-0.147095,0.224495,-0.0277328,0.0238037,-0.10994,-0.054512,0.00427246
342,5,3.11514,-1.88208,4.94909,1044.62,-287.78,360.129,202.9,-304.365,-0.0795827,8.79755,-0.955052,-26.2768,-2006.24,-2092.72,-158.011,119.218,376.744,-0.0142713,-0.0292969,-0.00213623,0.0247192,0.0152588,-0.0164795,0.00366211,2.97332,-2.34496,7.52678,902.71,-1603.17,379.471,-199.669,-305.422,-0.130892,0.0088501,0.0143433,0.0782776,0.0408936,-0.0726318,0.000762939,0.0320435,-0.00305176,-0.0213623,0.112,0.114899,-0.204926,-0.0563049,0.0549316,-0.0424194,-0.0602722,2.66541,2.66327,-0.00350952,-0.000305176,0.0292969,0.0241089,0.00518799,-0.00488281,0.00854492,0.0402832,0.0715637,-0.187988,0.0178528,0.043335,0,0,0,0,0,0,207.643,-1058.39,0.0770316,0.068779,0.0206375,0.00839233,-0.10273,0.0936508,0.270576,-0.0367355,0.0891113,-0.182037,-0.00896454,-0.0576019,0.204277,-0.0835037,0.214424,-0.0164795,0.199623,0.00320435,0.102005,0.171471,-0.146599,0.167542,0.200539,-0.120926,-0.244217,0.0391006,-0.20031,-0.127182,0.285339,-0.027771,-0.00453949,-0.110283,-0.0389481,-0.00305176
342,6,0,0,0,0,0,0,202.9,-304.365,-0.0795827,9.41574,-0.421333,-34.7597,-2797.45,-2202.08,-251.428,135.501,380.877,-0.00457609,-0.0314331,-0.000305176,0.0320435,0.020752,-0.017395,0.00518799,3.14955,-2.52072,9.65534,992.099,-1882.99,305.274,-199.669,-305.422,-0.130892,0.0238037,0.0202942,0.0759888,0.0108337,-0.106659,0.0297546,0.00228882,-0.00747681,-0.00946045,0.125122,0.12619,-0.200348,-0.0491333,0.052948,-0.0550842,-0.0665283,2.66861,2.68127,0.0279236,0.0151062,0.00976562,0.00244141,0.0704956,0.01297,0.00473022,0.035553,-0.00915527,-0.187378,0.0485229,0.038147,0,0,0,0,0,0,207.643,-1058.39,0.0770316,-0.00572205,-0.0120544,0.0476456,-0.081749,0.0977707,0.268593,-0.0437164,0.0774384,-0.134735,-0.0430679,-0.0458527,0.254211,-0.10601,0.203476,0.00404358,0.20504,0.0320053,0.113373,0.138054,-0.122986,0.211449,0.205154,-0.130539,-0.270348,0.0428391,-0.145645,-0.0938034,0.243492,-0.00347137,0.0843811,-0.152435,-0.0699615,-0.00549316
342,7,2.5876,-2.3272,3.88616,1266.03,-463.193,304.741,202.9,-304.365,-0.0795827,11.8862,0.828628,-58.0872,-4600.63,-2281.77,-326.929,159.564,379.603,0.0114899,-0.039978,0.00396729,0.0521851,0.0332642,-0.0180054,0.00640869,3.15042,-2.69785,8.94593,769.627,-1568.48,416.552,-199.669,-305.422,-0.130892,0.0152588,-0.00396729,0.0801086,0.038147,-0.11734,-0.0169373,-0.000915527,-0.0283813,-0.0169373,0.0741577,0.10025,-0.215302,-0.0473022,0.0631714,-0.071106,-0.0544739,2.66495,2.69714,0.00732422,-0.00106812,0.0262451,0.0123596,0.0466919,0.0166321,0.0222778,0.092926,-0.0569153,-0.0782776,0.0363159,0.0105286,0,0,0,0,0,0,207.643,-1058.39,0.0770316,0.0120926,0.056572,0.0215149,-0.0975037,0.135841,0.253067,-0.0357056,0.102959,-0.182686,-0.0716019,-0.0239563,0.237236,-0.0954819,0.24601,0.019455,0.219193,-0.00118256,0.120735,0.183334,-0.079689,0.18074,0.216484,-0.131493,-0.279274,0.0447083,-0.158539,-0.1474,0.27195,0.0240707,0.00263214,-0.118027,-0.0510406,0.010376
342,8,0,0,0,0,0,0,202.9,-304.365,-0.0795827,12.6009,1.62546,-81.7692,-6621.62,-2748.15,-569.745,165.236,381.383,0.0147864,-0.0424194,0.00671387,0.0726318,0.0473022,-0.0219727,0.010376,2.8859,-2.96409,8.23639,681.272,-1673.73,360.776,-199.669,-305.422,-0.130892,-0.00823975,0.00320435,0.0741577,0.0245667,-0.0863647,0.00396729,0.015564,-0.00244141,-0.0201416,0.108795,0.116577,-0.240326,-0.0802612,0.0616455,-0.0524902,-0.071106,2.65915,2.67975,0.00930786,0.0216675,0.000305176,-0.00518799,0.0462341,0.0274658,0.0132751,0.045929,-0.106964,0.0508118,0.0259399,0.00793457,0,0,0,0,0,0,207.643,-1058.39,0.0770316,0.00534058,0.0183105,0.0150681,-0.0377655,0.116806,0.291481,-0.00976562,0.0730133,-0.146217,-0.0387192,-0.0633621,0.201149,-0.0563812,0.204315,-0.00823975,0.24929,0.000419617,0.152283,0.12867,-0.128632,0.193443,0.269394,-0.120735,-0.271454,0.0573349,-0.149231,-0.143127,0.26207,-0.0163269,0.00133514,-0.089798,-0.0667953,-0.0115967
342,9,0,0,0,0,0,0,202.9,-304.365,-0.0795827,16.2204,2.9679,-114.993,-9655.81,-2939.58,-906.213,173.28,384.374,0.0193529,-0.0549316,0.0112915,0.101318,0.0683594,-0.0234985,0.0158691,2.97332,-2.25662,7.17202,814.181,-1638.41,323.673,-199.669,-305.422,-0.130892,-0.00213623,-0.00686646,0.042572,0.0257874,-0.0546265,0.00259399,-0.00213623,0.00549316,-0.0302124,0.106049,0.0959778,-0.239258,-0.0627136,0.0396729,-0.0923157,-0.0869751,2.66556,2.66617,0.0088501,-0.00793457,-0.000305176,0.0311279,0.045929,-0.00732422,0.0372314,0.065155,-0.0500488,0.128479,-0.00259399,-0.00183105,0,0,0,0,0,0,207.643,-1058.39,0.0770316,-0.0268936,0.0296021,-0.00720978,-0.075531,0.104561,0.311699,-0.015831,0.105438,-0.134468,-0.0852203,-0.0489044,0.219498,-0.102005,0.192947,0.0527954,0.211678,0.0265884,0.104904,0.105133,-0.0902176,0.2034,0.221176,-0.121956,-0.213089,0.0793839,-0.146637,-0.138855,0.210876,0.032692,0.0209808,-0.128021,-0.0385284,-0.0204468
343,0,0,0,0,0,0,0,202.9,-304.365,-0.0795827,17.7278,5.71699,-156.702,-13346.8,-3730.22,-1057.12,175.038,385.579,0.0202205,-0.0601196,0.020752,0.137329,0.0939941,-0.0302124,0.0183105,2.8861,-2.78754,7.17214,902.264,-1428.15,398,-199.669,-305.422,-0.130892,0.0166321,-0.000457764,0.0747681,0.0630188,0.0163269,-0.00106812,0.000915527,-0.0361633,-0.0352478,0.128632,0.119629,-0.232086,-0.0720215,0.0323486,-0.0732422,-0.0744629,2.65762,2.63962,-0.025177,0.0222778,0.0338745,-0.000457764,0.022583,0.0193787,0.022583,0.0444031,-0.00213623,0.115967,0.0166321,0.0192261,3.32003,-1.77019,3.5748,904.411,-1103.23,340.262,207.643,-1058.39,0.0770316,0.0264359,0.0094223,-0.0409317,-0.073204,0.106621,0.272789,-0.051651,0.135765,-0.134811,-0.0249863,-0.0515747,0.190163,-0.0968933,0.20134,0,0.215988,0.0418091,0.138817,0.126228,-0.158348,0.169487,0.236397,-0.155945,-0.251274,0.0337219,-0.129509,-0.0998688,0.259705,-0.0214386,0.00488281,-0.10582,-0.0357437,-0.0131226
343,1,2.58474,-1.97335,4.59423,912.386,-288.465,341.332,202.9,-304.365,-0.0795827,18.7105,9.34794,-210.076,-17787.2,-4244.48,-1171.42,178.637,385.077,0.022697,-0.0634766,0.0332642,0.183411,0.124817,-0.0344849,0.0201416,3.41709,-2.78611,7.52719,680.969,-1533.75,286.387,-199.669,-305.422,-0.130892,0.0146484,-0.0143433,0.0267029,0.108185,-0.0627136,0.00350952,0.00488281,0.0111389,-0.0146484,0.114288,0.0996399,-0.240784,-0.0669861,0.0595093,-0.0624084,-0.0808716,2.6384,2.64847,-0.00259399,-0.0106812,-0.000305176,0.00442505,0.0413513,0.000610352,-0.00961304,0.00961304,-0.00366211,0.0201416,0.00183105,0.017395,0,0,0,0,0,0,207.643,-1058.39,0.0770316,0.0422668,0.0241089,0.00217438,-0.109253,0.0753021,0.277596,-0.0238037,0.131569,-0.155869,-0.0222397,-0.0740814,0.23056,-0.0973511,0.187874,0.0069046,0.223236,0.0445175,0.127563,0.156975,-0.10025,0.211487,0.204582,-0.178337,-0.231247,0.0523376,-0.128326,-0.10685,0.282593,0.02285,0.0145721,-0.137558,-0.0941467,-0.00488281
343,2,2.76292,-1.97279,3.88625,1088.68,-287.546,378.795,202.9,-304.365,-0.0795827,19.527,12.1774,-271.579,-22975.6,-4727.65,-1249.04,181.433,385.007,0.0245453,-0.0662231,0.0430298,0.236511,0.160828,-0.0384521,0.0213623,3.23916,-2.69775,8.59125,858.332,-1568.3,323.676,-199.669,-305.422,-0.130892,0.0170898,-0.0184631,0.0152588,0.0708008,-0.0587463,0.0131226,0.0323486,0.00411987,-0.0119019,0.16098,0.0637817,-0.190582,-0.149078,0.014801,-0.0505066,-0.0808716,2.66327,2.66205,-0.00274658,0.0109863,0.0157166,0.00549316,0.032959,0.00915527,0.0144958,-0.0125122,-0.00518799,-0.0428772,0.0350952,0.0205994,3.58851,-2.12619,3.21756,768.929,-996.247,434.502,207.643,-1058.39,0.0770316,0.0175476,0.0253296,-0.0201797,-0.053215,0.111771,0.188484,-0.0694656,0.154533,-0.122452,0.00576019,-0.0437546,0.246887,-0.143013,0.240669,-0.0192642,0.149612,0.0276947,0.137482,0.194435,-0.115547,0.186501,0.236855,-0.119553,-0.294876,0.030899,-0.158577,-0.135841,0.305099,0.00392914,0.0177002,-0.123253,-0.0510406,-0.0201416
343,3,0,0,0,0,0,0,202.9,-304.365,-0.0795827,19.47,13.7601,-331.669,-27767.7,-5278.8,-1270.64,182.925,384.129,0.0257297,-0.065918,0.0485229,0.288391,0.194092,-0.0430298,0.0216675,3.23978,-2.43309,6.46277,902.636,-1533.22,212.177,-199.669,-305.422,-0.130892,0.0288391,-0.00671387,0.00411987,0.0796509,0.0657654,0.0151062,-0.00106812,0.00259399,-0.0160217,0.16571,0.0619507,-0.17868,-0.130005,0.0419617,-0.0613403,-0.111084,2.64816,2.6593,0.0198364,0.0279236,0.0117493,0.0109863,0.0762939,0.0125122,-0.0318909,-0.0483704,0.00244141,-0.0088501,0.0149536,-0.00289917,0,0,0,0,0,0,207.643,-1058.39,0.0770316,-0.0205994,0.0172806,0.00858307,-0.0315475,0.105934,0.209007,-0.0406647,0.154114,-0.127831,-0.0270844,-0.0575256,0.274239,-0.129356,0.210419,-0.00156403,0.171585,0.0138855,0.134544,0.135193,-0.0978851,0.240784,0.186005,-0.142937,-0.248413,0.056839,-0.173378,-0.15789,0.256195,0.0281143,0.0657272,-0.129509,-0.0829315,0.00488281
343,4,0,0,0,0,0,0,202.9,-304.365,-0.0795827,19.3293,13.7465,-385.396,-31723.8,-5895.56,-1161.58,183.543,382.722,0.026466,-0.0653076,0.0485229,0.334778,0.221558,-0.0482178,0.0198364,3.06382,-2.96412,6.81757,770.184,-1743.56,212.166,-199.669,-305.422,-0.130892,0.020752,0.00274658,-0.0363159,0.0621033,0.0360107,-0.00289917,0.0283813,0.0038147,-0.0135803,0.162964,0.0791931,-0.192413,-0.13504,0.0234985,-0.0537109,-0.0863647,2.66602,2.66998,-0.0137329,-0.00473022,0.0273132,0.0338745,0.0436401,-0.019989,0.0218201,-0.0170898,-0.00839233,0.025177,0.0238037,0.0302124,3.40966,-1.85903,3.57485,814.093,-853.788,434.199,207.643,-1058.39,0.0770316,-0.0149918,0.0148773,-0.0239944,-0.0606155,0.148773,0.208168,-0.0307465,0.183182,-0.120926,-0.0317383,-0.043869,0.219765,-0.156746,0.250893,0.00679016,0.192299,0.0162888,0.188751,0.13588,-0.0970078,0.21656,0.221939,-0.116844,-0.263481,0.0352859,-0.134048,-0.11158,0.246124,0.0263214,0.0100327,-0.131378,-0.0413513,-0.000305176
343,5,0,0,0,0,0,0,202.9,-304.365,-0.0795827,20.2444,11.7011,-423.569,-35243.2,-5879.23,-1219.64,184.96,383.612,0.0271848,-0.0683594,0.0415039,0.367737,0.245972,-0.0479126,0.020752,3.15167,-2.43355,5.75325,947.017,-1533.14,119.275,-199.669,-305.422,-0.130892,0.0169373,0.017395,-0.0514221,0.0747681,0.166626,0.0143433,-0.00778198,-0.0309753,-0.0119019,0.153351,0.0674438,-0.191193,-0.145416,0.0291443,-0.0497437,-0.0828552,2.67746,2.66678,0.0288391,0.0305176,0.00396729,-0.00152588,0.0593567,0.00274658,-0.0088501,-0.0691223,-0.0288391,0.106354,0.025177,0.00839233,0,0,0,0,0,0,207.643,-1058.39,0.0770316,-0.011673,-0.00289917,-0.0396729,-0.0367737,0.0931931,0.196724,0.0272751,0.173035,-0.117836,-0.0104523,-0.0763321,0.224342,-0.111694,0.237083,-0.0198364,0.204773,0.00534058,0.141563,0.138664,-0.105171,0.2425,0.257072,-0.150604,-0.248146,0.0590897,-0.195274,-0.128822,0.24086,0.00221252,0.0162888,-0.0899506,-0.123329,0.0177002
343,6,0,0,0,0,0,0,202.9,-304.365,-0.0795827,21.6945,6.82162,-450.077,-37264.6,-6275.5,-1332.38,184.897,383.203,0.02724,-0.0732422,0.0247192,0.390625,0.26001,-0.0512695,0.022583,3.59305,-2.25508,7.17239,636.57,-1463.91,119.066,-199.669,-305.422,-0.130892,0.0062561,0.00396729,-0.0160217,0.0784302,0.0689697,-0.0128174,0.0154114,-0.0166321,-0.0111389,0.155792,0.0592041,-0.188599,-0.126953,0.0102234,-0.0541687,-0.0547791,2.69363,2.6767,0.000915527,0.00671387,0.0320435,0.0389099,0.0427246,-0.0306702,0.0242615,-0.0358582,-0.0248718,-0.0114441,0.0123596,0.03479,3.85807,-1.59175,3.93142,813.944,-996.504,283.617,207.643,-1058.39,0.0770316,-0.0449753,0.0400543,-0.0117111,-0.0730515,0.107346,0.250053,-0.0288773,0.166664,-0.0736237,-0.0107956,-0.0411987,0.246849,-0.178719,0.224648,0.0601196,0.201149,0.00701904,0.196991,0.124588,-0.0995255,0.220604,0.216179,-0.130119,-0.206795,0.0533295,-0.151749,-0.133591,0.256538,0.0207901,-0.00888824,-0.126457,-0.0576401,0.00976562
343,7,0,0,0,0,0,0,202.9,-304.365,-0.0795827,22.0995,-0.901389,-468.809,-38406.9,-6561.91,-1277.31,184.844,382.331,0.0274101,-0.0744629,-0.00183105,0.406799,0.267944,-0.0537109,0.0216675,2.8861,-2.78754,7.17214,947.44,-1708.14,137.918,-199.669,-305.422,-0.130892,0.00610352,0.0115967,0.0219727,0.0686646,0.0012207,0.0012207,0.00289917,-0.0358582,-0.0396729,0.138245,0.0511169,-0.207214,-0.144196,0.022583,-0.0596619,-0.101318,2.63596,2.65778,-0.0180054,0.0164795,0.0149536,-0.00411987,0.03479,0.0312805,0.0146484,-0.00869751,-0.018158,-0.00701904,0.0163269,0.0244141,3.94687,-1.68185,3.21636,994.813,-1103.18,359.011,207.643,-1058.39,0.0770316,0.0228119,0.0590134,-0.0629044,-0.0527573,0.108261,0.190964,-0.0404739,0.200195,-0.127182,-0.0315475,-0.029068,0.206032,-0.125885,0.229874,-0.00671387,0.163918,0.0497437,0.200539,0.132637,-0.131569,0.214615,0.23983,-0.14122,-0.266533,0.0519562,-0.10025,-0.136795,0.2565,0.0167847,-0.0117874,-0.0862885,-0.0975418,-0.00335693
343,8,2.76194,-1.88424,4.24033,1177.32,-287.251,62.713,202.9,-304.365,-0.0795827,22.8529,-8.88708,-480.471,-39241.9,-6741.55,-1184.89,184.809,382.08,0.0274469,-0.0769043,-0.0292969,0.41687,0.273743,-0.0552368,0.0201416,3.32961,-2.69857,5.39871,681.234,-1568.85,-10.9729,-199.669,-305.422,-0.130892,0.0209045,-0.00564575,0.0413513,0.0523376,-0.139465,-0.0038147,0.0160217,0.0221252,-0.0187683,0.141296,0.0491333,-0.213928,-0.173798,0.0062561,-0.0585938,-0.118256,2.66113,2.65701,-0.00335693,-0.00747681,0.027771,0.0488281,0.0540161,-0.0050354,-0.00488281,0.0161743,0.0216675,-0.0170898,0.0106812,0.0132751,0,0,0,0,0,0,207.643,-1058.39,0.0770316,0.0141525,0.0209808,0.00408173,-0.0268555,0.0751495,0.217857,-0.0335693,0.169411,-0.126381,0.00370026,-0.0677109,0.224838,-0.124054,0.182228,0.00907898,0.20256,0.0194931,0.182076,0.152817,-0.0856018,0.207825,0.18631,-0.169754,-0.235901,0.0426102,-0.158463,-0.12619,0.272598,0.0325775,0.0348663,-0.149269,-0.0976562,0.0186157
343,9,0,0,0,0,0,0,202.9,-304.365,-0.0795827,23.3472,-18.4701,-486.124,-39548.9,-6918.4,-1166.46,184.609,381.761,0.0273905,-0.0784302,-0.0622559,0.421753,0.275879,-0.0567627,0.0198364,3.23979,-2.60976,7.17229,681.158,-1533.85,-29.5701,-199.669,-305.422,-0.130892,0.0187683,0.0154114,0.0576782,0.0238037,-0.267181,0.000305176,0.0218201,0.0201416,-0.0309753,0.167694,0.0125122,-0.129089,-0.13382,0.00579834,-0.0576782,-0.0801086,2.66144,2.6416,0.0135803,0.0204468,0.0157166,-0.00808716,0.0454712,0.022583,0.0323486,0.00656128,-0.00137329,0.0361633,0.042572,-0.00732422,3.40924,-1.85966,3.2173,813.947,-782.762,320.949,207.643,-1058.39,0.0770316,0.0056839,0.0277328,-0.00350952,-0.0639343,0.266953,-0.633698,-0.077095,0.269127,-0.0892258,-0.0123978,-0.0788116,0.275421,-0.724182,0.350075,0.0297546,0.21534,0.0157547,0.184174,0.162239,-0.116959,0.223427,0.21286,-0.140648,-0.273514,0.0139618,-0.148811,-0.144424,0.251083,-0.00244141,0.0317383,-0.133095,-0.0840378,0.00854492
344,0,2.58189,-1.6195,5.30229,1133.27,-322.733,155.669,202.9,-304.365,-0.0795827,23.7548,-27.6112,-497.432,-39857.3,-6849.91,-999.418,185.07,380.531,0.0279824,-0.0796509,-0.093689,0.431519,0.278015,-0.0561523,0.0170898,2.97247,-2.34449,8.94571,902.38,-1358.31,-85.2521,-199.669,-305.422,-0.130892,0.00991821,0.0154114,0.0640869,0.0535583,-0.11734,-0.0262451,-0.0131226,0.00717163,0.0105286,0.17746,0.0131226,-0.123138,-0.13916,-0.0178528,-0.0718689,-0.0846863,2.6535,2.65976,0.0205994,0.0393677,0.00869751,0.0180054,0.0566101,-0.0138855,-0.00183105,0.0215149,0.0215149,0.0909424,0.0140381,-0.0123596,3.05131,-2.30338,3.57605,814.055,-889.467,396.553,207.643,-1058.39,0.0770316,-0.00297546,0.0396729,0.00102997,-0.0614166,0.247574,-0.65609,-0.032692,0.247269,-0.137558,-0.0108337,-0.0744247,0.233307,-0.74337,0.340538,-0.00106812,0.277367,-0.001297,0.162697,0.151482,-0.099678,0.248947,0.207253,-0.161438,-0.267181,0.0623703,-0.119743,-0.199814,0.256615,0.0465775,0.0153732,-0.126495,-0.0914001,0.0170898
344,1,0,0,0,0,0,0,202.9,-304.365,-0.0795827,23.7194,-36.842,-502.732,-40294.8,-7307.8,-906.674,184.304,380.556,0.0274749,-0.0793457,-0.125427,0.436096,0.281067,-0.0601196,0.015564,3.59416,-2.874,7.88206,770.231,-1708.63,-10.8737,-199.669,-305.422,-0.130892,-0.00183105,0.00839233,0.0550842,0.0656128,0.155792,0.0161743,0.0224304,0.0210571,-0.0337219,0.17746,0.0256348,-0.128937,-0.13504,-0.00289917,-0.0585938,-0.065918,2.66678,2.65656,-0.0180054,0.0276184,0.0273132,0.00778198,0.0411987,0.0119019,0.0158691,-0.015564,0.0228882,0.100861,0.0578308,-0.00717163,0,0,0,0,0,0,207.643,-1058.39,0.0770316,-0.0302505,0.0140381,-0.0195312,-0.0344849,0.280418,-0.641785,-0.0335693,0.269966,-0.0920105,-0.051651,-0.115929,0.217476,-0.733299,0.366516,0.0258255,0.267105,0.0423813,0.196724,0.104904,-0.0231171,0.222435,0.220528,-0.0767899,-0.27462,0.0546646,-0.130997,-0.193596,0.248146,0.040741,-0.0364304,-0.0944138,-0.0563812,-0.000305176
344,2,0,0,0,0,0,0,202.9,-304.365,-0.0795827,23.0738,-46.7865,-510.153,-40560,-7098.9,-739.634,184.925,379.91,0.0280339,-0.0769043,-0.159607,0.442505,0.282898,-0.0582886,0.0128174,3.41685,-2.52099,6.81764,769.863,-1533.66,-122.446,-199.669,-305.422,-0.130892,0.0152588,0.0160217,0.0320435,0.0933838,0.296936,-0.000915527,0.0109863,0.0457764,-0.000305176,0.184174,0.0259399,-0.113831,-0.127716,-0.012207,-0.0698853,-0.0575256,2.64526,2.66891,0.00259399,0.0273132,-0.0012207,0.0236511,0.0701904,0.00701904,-0.000610352,0.0212097,0.0413513,0.0865173,0.0311279,0.00991821,0,0,0,0,0,0,207.643,-1058.39,0.0770316,-0.00896454,0.0284576,-0.0217819,-0.032692,0.23201,-0.648232,0.00354767,0.270653,-0.0942993,0.00682831,-0.0811386,0.215378,-0.767136,0.318527,-0.000305176,0.308113,-0.018425,0.201721,0.118523,-0.0267029,0.182838,0.216904,-0.144081,-0.234413,0.0634003,-0.126724,-0.19165,0.273628,0.0325775,-0.030098,-0.111732,-0.0844193,0.00701904
344,3,1.96429,-1.97634,4.94743,822.754,99.2356,-12.4064,202.9,-304.365,-0.0795827,22.6892,-56.2857,-517.22,-40954.9,-7311.22,-553.995,184.705,379.586,0.0279657,-0.0753784,-0.192261,0.448608,0.285645,-0.0601196,0.00976562,3.32919,-2.78667,6.46294,858.838,-1673.43,-85.1751,-199.669,-305.422,-0.130892,-0.00320435,0.0296021,0.0106812,0.0840759,0.337067,0.010376,0.0169373,0.0378418,-0.00808716,0.168762,0.00640869,-0.123749,-0.135651,-0.00213623,-0.0564575,-0.0709534,2.67334,2.68112,0.00717163,0.0305176,0.042572,0.0198364,0.0531006,0.0263977,0.0416565,0.0257874,-0.019989,0.0494385,0.0520325,0.0286865,3.32009,-2.03676,3.57527,814.081,-1138.79,378.138,207.643,-1058.39,0.0770316,0.0191116,0.0373459,-0.0368881,-0.0451279,0.234451,-0.637398,-0.042305,0.275154,-0.0676727,-0.00640869,-0.0889206,0.230751,-0.739479,0.321693,0.0197601,0.218468,0.0124359,0.234489,0.105247,-0.0490189,0.228233,0.212021,-0.13958,-0.233879,0.0262833,-0.129318,-0.138969,0.240326,0.0276947,-0.0207138,-0.132523,-0.0622559,0.00518799
344,4,2.67609,-2.41495,4.24046,1177.75,-322.635,-104.676,202.9,-304.365,-0.0795827,22.2163,-65.2539,-527.822,-41525.1,-7664.65,-349.854,184.319,379.076,0.0278333,-0.0735474,-0.223083,0.457764,0.289612,-0.0631714,0.00640869,3.32833,-2.60954,7.17235,858.327,-1463.43,-103.83,-199.669,-305.422,-0.130892,0.0340271,0.00869751,0.0038147,0.0808716,0.339661,0.00411987,-0.0102234,0.0164795,-0.00335693,0.185852,0.00411987,-0.137787,-0.15976,-0.0180054,-0.0535583,-0.0648499,2.66098,2.66205,0.0154114,0.00808716,-0.00289917,0.0257874,0.0697327,0.0204468,0.0183105,0.0170898,0.00793457,0.0534058,0.0437927,-0.0157166,4.03814,-1.67931,4.64647,813.9,-996.57,245.909,207.643,-1058.39,0.0770316,-0.00301361,0.0508499,-0.0200272,-0.0409317,0.238762,-0.666924,-0.0394821,0.288506,-0.115585,-0.0233078,-0.0524902,0.221786,-0.737381,0.357475,0.000419617,0.239601,0.0813675,0.194283,0.124207,-0.00553131,0.196381,0.262985,-0.138779,-0.247192,0.0577927,-0.121498,-0.190849,0.236168,0.0558472,-0.0300598,-0.095787,-0.0796127,0.0012207
344,5,0,0,0,0,0,0,202.9,-304.365,-0.0795827,22.0936,-74.1311,-537.011,-41788.7,-7736.11,-219.917,184.435,378.22,0.0281103,-0.072937,-0.253601,0.465698,0.291443,-0.0637817,0.00427246,3.32876,-2.69811,6.81764,725.833,-1638.79,-178.195,-199.669,-305.422,-0.130892,-0.019989,-0.0167847,0.0396729,0.0654602,0.226746,-0.00915527,0.0135803,0.000457764,-0.0126648,0.160828,0.0062561,-0.119324,-0.145569,-0.018158,-0.0440979,-0.0671387,2.68173,2.66846,-0.0012207,0.0698853,0.00930786,0.0299072,0.0378418,-0.0254822,0.0154114,0.0119019,0.0125122,0.0236511,0.0376892,0.0169373,0,0,0,0,0,0,207.643,-1058.39,0.0770316,0.0317001,0.0374603,-0.0428772,-0.0355911,0.229454,-0.629654,-0.0333405,0.247917,-0.108948,0.00530243,-0.0979614,0.228806,-0.697784,0.351601,0.0146484,0.274582,0.0344467,0.199661,0.129852,-0.0362778,0.215454,0.22789,-0.171509,-0.22953,0.0339127,-0.120049,-0.180321,0.304031,0.0534821,-0.0308609,-0.112343,-0.10952,0.00671387
344,6,0,0,0,0,0,0,202.9,-304.365,-0.0795827,21.4403,-82.3014,-547.26,-42359,-8054.53,-145.876,184.123,377.805,0.0280038,-0.0704956,-0.281677,0.474548,0.29541,-0.0665283,0.00305176,3.5054,-2.69744,7.52721,770.32,-1708.68,-159.56,-199.669,-305.422,-0.130892,-0.0332642,0.0119019,0.0306702,0.0672913,0.175476,-0.0210571,-0.0050354,-0.0350952,0.0216675,0.16037,-0.0572205,-0.142059,0.284271,-0.236053,-0.0767517,-0.0602722,2.65182,2.65854,0.0238037,0.0608826,0.0138855,0.0419617,0.0357056,0.0114441,-0.000610352,0.0180054,0.0186157,0.0370789,0.0196838,0.00732422,3.23088,-1.94729,3.93277,994.835,-1103.14,377.865,207.643,-1058.39,0.0770316,0.0577545,0.0139618,0.0336838,-0.0223923,0.265121,-0.537262,-0.0896835,0.386276,-0.123177,-0.0237656,-0.12413,0.308189,-1.03443,0.910416,-0.0038147,0.407867,0.0217438,0.209007,0.1334,-0.0362778,0.251083,0.231934,-0.131912,-0.29068,0.0267029,-0.0940323,-0.223045,0.242729,0.0522995,0.0397491,-0.123367,-0.0842285,0.00610352
344,7,0,0,0,0,0,0,202.9,-304.365,-0.0795827,21.0537,-91.1799,-556.094,-42711.1,-8056.33,169.834,184.353,377.208,0.0282954,-0.0689697,-0.312195,0.482178,0.297852,-0.0665283,-0.00213623,2.97334,-2.60996,8.59106,902.75,-1498.33,-122.378,-199.669,-305.422,-0.130892,-0.0318909,-0.00411987,0.0260925,0.0558472,-0.0521851,-0.00640869,0.00244141,-0.0418091,-0.000610352,0.16098,-0.0866699,-0.142059,0.310669,-0.241699,-0.0605774,-0.040741,2.64145,2.66281,-0.00839233,0.0169373,0.0167847,0.025177,0.0392151,-0.0161743,-0.00610352,0.0576782,0.025177,0.00671387,0.0193787,-0.00335693,0,0,0,0,0,0,207.643,-1058.39,0.0770316,0.0719452,-0.000915527,0.0220871,-0.0214767,0.274811,-0.540504,-0.0361252,0.375786,-0.178757,-0.0240707,-0.110245,0.277977,-1.00975,0.952225,0.0168991,0.444679,-0.0137329,0.197868,0.138664,-0.0172043,0.2388,0.204239,-0.103531,-0.228615,0.0430679,-0.188484,-0.20092,0.264816,0.0437546,0.0258636,-0.125046,-0.0680542,-0.0219727
344,8,0,0,0,0,0,0,202.9,-304.365,-0.0795827,20.5746,-99.083,-565.99,-43238,-8269.36,318.217,184.23,376.795,0.0283118,-0.0671387,-0.339355,0.490723,0.301514,-0.0683594,-0.00457764,3.15084,-2.60975,7.8817,991.194,-1393.13,-215.288,-199.669,-305.422,-0.130892,-0.0248718,0.0100708,0.0285339,0.0497437,-0.132294,0.0144958,0.0289917,-0.0230408,0.0271606,0.18631,-0.0686646,-0.131531,0.288086,-0.238953,-0.0694275,-0.0411987,2.677,2.64618,0.0172424,0.0216675,0.0202942,-0.0115967,0.0502014,0.0260925,0.0120544,0.0177002,-0.000762939,0.0442505,0.0437927,-0.0262451,0,0,0,0,0,0,207.643,-1058.39,0.0770316,0.0364685,-0.0405884,0.00976562,-0.0371933,0.270691,-0.524139,0.0127411,0.376778,-0.121841,-0.0254822,-0.157967,0.288162,-1.02642,0.911522,0.00526428,0.453949,0.0421524,0.235519,0.0951767,-0.0346756,0.21698,0.252419,-0.0960922,-0.279961,0.0508881,-0.146713,-0.169601,0.21286,0.0196457,0.00797272,-0.106468,-0.0722885,-0.0152588
344,9,0,0,0,0,0,0,202.9,-304.365,-0.0795827,20.1774,-106.275,-572.351,-43500.9,-8480.99,466.772,184.022,376.405,0.0282677,-0.0656128,-0.364075,0.496216,0.303345,-0.0701904,-0.00701904,3.32837,-3.13955,9.30091,991.368,-1463.14,-215.265,-199.669,-305.422,-0.130892,0.0434875,0.0109863,0.0163269,0.0772095,-0.00411987,0.0254822,0.0161743,0.00274658,0.0164795,0.184021,-0.0889587,-0.102997,0.324707,-0.238953,-0.0608826,-0.0144958,2.68921,2.67075,-0.000610352,-0.00808716,-0.00320435,0.00244141,0.04776,0.00442505,0.0012207,0.0202942,0.0134277,0.0292969,0.0250244,-0.00350952,3.76898,-2.12427,4.29001,994.743,-960.791,321.052,207.643,-1058.39,0.0770316,0.0326538,0.000762939,-0.00827789,-0.0671387,0.248947,-0.544891,0.0122452,0.389023,-0.110474,-0.0160217,-0.115509,0.260544,-1.05965,0.928993,0.00747681,0.464897,0.0153351,0.197906,0.108833,-0.00881195,0.187454,0.223122,-0.148163,-0.254021,0.0926971,-0.149155,-0.196724,0.282288,0.0519943,-0.0469589,-0.121078,-0.0735855,-0.0167847
345,0,0,0,0,0,0,0,202.9,-304.365,-0.0795827,18.8936,-112.14,-578.359,-43632.6,-8551.74,652.549,184.054,375.843,0.0284208,-0.0610352,-0.384216,0.501404,0.30426,-0.0708008,-0.0100708,3.68248,-2.78533,7.88208,991.932,-1708.12,-140.841,-199.669,-305.422,-0.130892,0.0694275,0.0315857,0.0202942,0.0628662,-0.0619507,0.0205994,0.0245667,0.0256348,0.020752,0.189209,-0.0666809,-0.112762,0.30304,-0.247955,-0.0253296,-0.0204468,2.67487,2.65701,0.00106812,0.0141907,0.00427246,-0.0227356,0.0372314,0.0213623,0.00930786,0.0120544,0.00198364,0.03479,0.0582886,0.00930786,3.32052,-2.12498,3.93298,633.318,-1245.69,359.682,207.643,-1058.39,0.0770316,0.062561,0.00038147,-0.00686646,-0.025444,0.235214,-0.552063,-0.0434113,0.363922,-0.0837708,-0.028801,-0.09758,0.28511,-1.02036,0.90538,-0.00427246,0.425453,0.044632,0.262337,0.106544,-0.030365,0.242462,0.234871,-0.15625,-0.262451,0.0322342,-0.120583,-0.140305,0.240517,0.032692,-0.00453949,-0.0873566,-0.122337,-0.0109863
345,1,0,0,0,0,0,0,202.9,-304.365,-0.0795827,16.7202,-115.792,-586.49,-43982.8,-8904,875.42,183.658,375.395,0.0282672,-0.0534058,-0.396729,0.508423,0.306702,-0.0738525,-0.0137329,3.23957,-2.43298,6.8175,903.035,-1568.39,-308.212,-199.669,-305.422,-0.130892,0.0204468,0.00244141,0.0128174,0.0671387,-0.0538635,0.0233459,0.0302124,0.0706482,0.0268555,0.17868,-0.085144,-0.11673,0.322418,-0.220947,-0.0701904,-0.0366211,2.66861,2.6622,0.0308228,-0.0216675,-0.00808716,0.0311279,0.057373,0.000152588,-0.00350952,0.020752,0.037384,0.017395,0.0305176,-0.00396729,3.6792,-1.23573,4.28855,994.697,-1067.73,264.678,207.643,-1058.39,0.0770316,0.0597382,0.0320435,0.0156403,-0.0318527,0.234375,-0.520935,-0.042572,0.390701,-0.133972,-0.0486374,-0.0746536,0.285912,-1.01376,0.914192,0.00312805,0.426102,0.0624466,0.214043,0.0971222,0.0297928,0.217972,0.233192,-0.160446,-0.239487,0.0222397,-0.139198,-0.1651,0.248985,0.104294,-0.0154495,-0.132713,-0.0907898,-0.0180054
345,2,0,0,0,0,0,0,202.9,-304.365,-0.0795827,15.0645,-118.109,-590.378,-44292.4,-8625.21,1172.51,184.23,375.425,0.0286349,-0.0476074,-0.404663,0.51178,0.308838,-0.0714111,-0.0186157,3.1513,-3.05165,8.94605,770.735,-1848.72,-271.028,-199.669,-305.422,-0.130892,0.0309753,0.0215149,0.012207,0.0219727,-0.0215149,0.0259399,0.0228882,0.0434875,0.0215149,0.16449,-0.0645447,-0.111084,0.289917,-0.242157,-0.0465393,-0.00976562,2.67944,2.66342,0.032196,0.00289917,0.00671387,-0.00518799,0.0360107,0.045166,0.0228882,-0.0164795,0.00946045,0.0318909,0.0723267,0.00350952,2.96248,-2.03557,4.29079,768.854,-1174.48,340.545,207.643,-1058.39,0.0770316,0.0844193,-0.00587463,-0.00534058,-0.00038147,0.25425,-0.561142,-0.0534058,0.358429,-0.145035,0.00904083,-0.118065,0.255356,-0.993576,0.922279,0.0173187,0.435791,0.0215149,0.246658,0.161171,-0.0159073,0.198326,0.247955,-0.162964,-0.259552,0.0333786,-0.153351,-0.173073,0.261078,0.0387955,0.00602722,-0.09552,-0.104256,-0.0158691
345,3,0,0,0,0,0,0,202.9,-304.365,-0.0795827,13.9332,-119.537,-596.741,-44378.6,-8976.11,1209.7,183.798,374.769,0.0285061,-0.0436401,-0.409546,0.517273,0.309448,-0.0744629,-0.0192261,3.59306,-2.43175,7.88191,903.481,-1743.41,-326.74,-199.669,-305.422,-0.130892,0.0248718,-0.010376,-0.0485229,0.0416565,0.0930786,0.00976562,-0.014801,0.0268555,0.0816345,0.236816,-0.141754,-0.0541687,0.869141,-0.088501,-0.0660706,-0.120392,2.66693,2.67334,0.0144958,0.0178528,-0.00488281,0.00518799,0.0820923,0.00976562,-0.00106812,0.01297,0.0160217,0.015564,0.0326538,-0.0241089,0,0,0,0,0,0,207.643,-1058.39,0.0770316,0.102692,0.0149536,0.142441,0.195122,-0.339355,-0.718842,-0.0435638,0.246544,-0.198631,-0.0540161,-0.171204,0.961304,-1.05076,0.982094,0.0463486,0.553322,0.0419235,0.189438,0.113564,0.00205994,0.265236,0.2285,-0.148125,-0.261879,0.0509644,-0.156059,-0.184174,0.252571,0.0624466,0.0268555,-0.125923,-0.0669479,-0.00183105
345,4,0,0,0,0,0,0,202.9,-304.365,-0.0795827,12.4399,-119.456,-599.57,-44291.1,-8905.52,1377.01,183.987,374.273,0.0287466,-0.0384521,-0.409241,0.519714,0.308838,-0.0738525,-0.0219727,3.68183,-2.69665,8.59152,592.926,-1639.16,-289.789,-199.669,-305.422,-0.130892,0.0161743,-0.0012207,-0.0749207,0.0613403,0.131989,0.0242615,0.0160217,0.0254822,0.0402832,0.207214,-0.143127,-0.0419617,0.871887,-0.108795,-0.0732422,-0.0793457,2.66998,2.68478,-0.00717163,0.00137329,0.00366211,0.00579834,0.0216675,0.032959,0.0234985,0.0239563,0.0196838,0.00106812,0.0358582,0.010376,0,0,0,0,0,0,207.643,-1058.39,0.0770316,0.143166,0.0453186,0.105972,0.206528,-0.303917,-0.723724,-0.0402069,0.22892,-0.24353,-0.0331497,-0.148621,0.943947,-1.04862,1.02154,0.0195312,0.582695,0.0115204,0.168228,0.128365,-0.0283051,0.227661,0.224342,-0.087738,-0.239563,0.0299835,-0.32692,-0.216331,0.279045,0.0195312,-0.0652695,-0.156708,-0.0471878,-0.00305176
345,5,0,0,0,0,0,0,202.9,-304.365,-0.0795827,11.2884,-117.6,-601.692,-44423.9,-8765.99,1599.9,184.271,374.233,0.0289422,-0.0344849,-0.402832,0.521545,0.309753,-0.0726318,-0.0256348,3.77123,-2.87356,7.88216,1036.19,-1638.07,-326.695,-199.669,-305.422,-0.130892,0.0328064,0.0012207,-0.108337,0.0157166,0.0601196,0.0202942,-0.00427246,0.0189209,0.0865173,0.23407,-0.157776,-0.0509644,0.859985,-0.115967,-0.0721741,-0.111084,2.62375,2.63947,0.025177,0.0123596,-0.0152588,0.000610352,0.0679016,0.00961304,0.0178528,0.0164795,0.00991821,0.0492859,0.0250244,-0.0250244,3.76938,-2.03479,4.64741,859.266,-996.297,396.689,207.643,-1058.39,0.0770316,0.130386,-0.00839233,0.116463,0.21656,-0.352898,-0.724449,0.0217819,0.251312,-0.191727,-0.0366592,-0.19928,0.944786,-1.04202,0.980225,0.0156021,0.602264,0.0366974,0.185204,0.0669861,-0.0232315,0.249596,0.187492,-0.117073,-0.26207,0.0787354,-0.290031,-0.223541,0.225639,0.0243759,-0.0212097,-0.157852,-0.117722,0.0152588
345,6,0,0,0,0,0,0,202.9,-304.365,-0.0795827,10.1351,-115.299,-604.521,-44291.2,-8905.49,1507.1,184.108,373.668,0.0289687,-0.0305176,-0.394897,0.523987,0.308838,-0.0738525,-0.0241089,2.97354,-2.43341,7.52681,859.025,-1708.49,-252.435,-199.669,-305.422,-0.130892,0.0360107,0.0297546,-0.09552,-0.030365,0.00656128,-0.00732422,0.00488281,0.0132751,0.0642395,0.257263,-0.135193,-0.039978,0.857239,-0.122223,-0.0749207,-0.0961304,2.66998,2.66785,-0.012207,-0.00335693,0.00228882,0.00579834,0.0135803,0.00930786,0.00854492,0.0343323,0.000915527,-0.00762939,0.017395,0.00213623,0,0,0,0,0,0,207.643,-1058.39,0.0770316,0.132599,0.0322723,0.0796509,0.147629,-0.347137,-0.718918,-0.0366592,0.261459,-0.157928,-0.0525665,-0.143852,0.936546,-1.08158,0.997124,0.0121689,0.563927,0.00801086,0.192299,0.13073,-0.000343323,0.199585,0.204506,-0.128098,-0.271111,0.0835419,-0.299225,-0.159225,0.27401,0.0335312,-0.0590897,-0.181313,-0.10479,0.00518799
345,7,0,0,0,0,0,0,202.9,-304.365,-0.0795827,9.75958,-111.129,-602.048,-44289.8,-9185.81,1618.67,183.582,373.967,0.0285536,-0.0292969,-0.380554,0.521851,0.308838,-0.0762939,-0.0259399,2.97354,-2.34507,7.17205,1124.61,-1567.82,-233.736,-199.669,-305.422,-0.130892,0.0473022,0.0300598,-0.0115967,-0.0723267,-0.0640869,0.0111389,0.0215149,0.0154114,0.0788879,0.22522,-0.133057,-0.0508118,0.856018,-0.0985718,-0.055542,-0.110931,2.67181,2.65564,0.0175476,0.00213623,-0.00915527,-0.0263977,0.0552368,0.0396729,0.00244141,0.0262451,0.00610352,0.0224304,-0.00473022,-0.0334167,3.1417,-2.03553,4.29058,994.835,-1103.14,377.865,207.643,-1058.39,0.0770316,0.169258,0.0503922,0.102692,0.198975,-0.35183,-0.762253,-0.028801,0.241089,-0.186386,-0.0212097,-0.161324,0.933571,-1.03935,0.996323,-0.0235367,0.550499,0.0442886,0.230293,0.0889969,0.0101852,0.266113,0.242729,-0.172501,-0.282822,0.0606155,-0.293007,-0.171471,0.241394,0.0440216,-0.00965118,-0.155983,-0.147247,0.0109863
345,8,0,0,0,0,0,0,202.9,-304.365,-0.0795827,9.82791,-107.225,-603.816,-44333.4,-9256.12,1637.25,183.51,373.824,0.0285403,-0.0296021,-0.367126,0.523376,0.309143,-0.0769043,-0.0262451,3.41773,-2.87479,6.81775,725.846,-1603.85,-345.478,-199.669,-305.422,-0.130892,-0.00976562,0.0154114,0.0354004,-0.0587463,-0.184784,-0.01297,0.014801,0.0569153,0.0743103,0.229187,-0.148773,-0.0480652,0.870514,-0.108185,-0.0830078,-0.0837708,2.66037,2.67883,0.00778198,-0.0473022,0.0379944,-0.00152588,0.0328064,0.00579834,0.0131226,0.0382996,0.0236511,0.00701904,-0.0166321,-0.00808716,0,0,0,0,0,0,207.643,-1058.39,0.0770316,0.104065,0.0651932,0.0899124,0.201836,-0.324707,-0.72525,-0.0513077,0.210075,-0.225487,-0.0579071,-0.134659,0.945587,-1.04355,0.994606,0.013237,0.553055,0.0337982,0.16674,0.100822,0.0725174,0.216484,0.224037,-0.123444,-0.283928,0.0287628,-0.311546,-0.225334,0.281181,0.0756073,-0.0545502,-0.152092,-0.0970459,-0.00152588
345,9,0,0,0,0,0,0,202.9,-304.365,-0.0795827,10.0664,-102.431,-604.17,-43982.1,-9114.12,1470.18,183.754,373.199,0.0288472,-0.0305176,-0.350647,0.523682,0.306702,-0.0756836,-0.0234985,3.68157,-2.07819,6.46292,814.484,-1603.62,-326.839,-199.669,-305.422,-0.130892,0.00259399,0.0050354,0.0621033,-0.0523376,-0.162201,-0.00732422,0.0111389,0.0340271,0.0767517,0.243378,-0.103149,-0.0495911,0.870667,-0.0964355,-0.0650024,-0.0860596,2.66449,2.65991,-0.000152588,0.010376,0.000915527,0.00167847,0.0392151,0.0259399,0.0114441,0.00686646,0.00198364,-0.0012207,0.0196838,-0.0254822,3.76969,-1.50103,5.00402,542.88,-1174.55,321.954,207.643,-1058.39,0.0770316,0.124779,0.0382614,0.0998306,0.232773,-0.338287,-0.739098,-0.0438309,0.238686,-0.203476,-0.043602,-0.174217,0.923271,-1.02436,1.0099,0.0244141,0.60421,0.0276947,0.17601,0.116272,-0.0273514,0.241241,0.234718,-0.156097,-0.283928,0.0358582,-0.301666,-0.212822,0.264206,0.0338745,-0.0543976,-0.111046,-0.105896,0.00579834
346,0,0,0,0,0,0,0,202.9,-304.365,-0.0795827,10.4033,-99.59,-604.524,-43938.1,-9113.88,1507.38,183.764,373.084,0.0288804,-0.0317383,-0.340881,0.523987,0.306396,-0.0756836,-0.0241089,3.68051,-2.16595,8.59134,770.376,-1708.71,-252.488,-199.669,-305.422,-0.130892,0.0119019,-0.000305176,0.0709534,-0.0682068,-0.144501,-0.00488281,0.0120544,0.0575256,0.103912,0.293884,-0.110168,-0.24353,0.357513,-0.33432,-0.0744629,-0.215454,2.68112,2.69196,0.0138855,-0.0175476,0.0111389,0.0457764,0.0483704,0.0151062,-0.00167847,0.0282288,-0.00564575,0.0050354,-0.0123596,-0.012207,0,0,0,0,0,0,207.643,-1058.39,0.0770316,0.150566,0.107689,0.272102,0.158119,-0.524559,0.556068,-0.024147,-0.081749,-0.276947,-0.249329,-0.851326,0.716324,-0.427971,0.126686,0.0468445,0.689163,0.0346375,0.207405,0.10479,0.00537872,0.255623,0.209541,-0.142136,-0.239792,0.0156784,-0.321579,-0.204697,0.246048,0.0381088,-0.0154114,-0.177765,-0.139923,0.00732422
346,1,0,0,0,0,0,0,202.9,-304.365,-0.0795827,10.9058,-94.8839,-604.525,-43498.5,-9041.48,1396.14,183.883,372.357,0.0291301,-0.0335693,-0.324707,0.523987,0.303345,-0.0750732,-0.0222778,3.41663,-2.3442,6.46285,903.416,-1708.42,-363.923,-199.669,-305.422,-0.130892,-0.0160217,-0.000305176,0.0520325,-0.0654602,-0.0582886,-0.00289917,0.00183105,0.0267029,0.0811768,0.287323,-0.139008,-0.257721,0.353851,-0.325623,-0.0579834,-0.211639,2.67914,2.65564,0.0117493,0.0526428,-0.00610352,0.0187683,0.0445557,0.0315857,0.0276184,0.0241089,-0.00198364,0.00457764,0.000762939,-0.00167847,3.49955,-1.14754,3.93105,859.2,-996.396,340.127,207.643,-1058.39,0.0770316,0.164795,0.134392,0.269241,0.164413,-0.48275,0.506248,-0.0582123,-0.0553894,-0.271835,-0.246925,-0.856514,0.720024,-0.443459,0.156631,0.0274277,0.691948,0.0583267,0.163307,0.111313,-0.0160599,0.202675,0.247002,-0.0966263,-0.276909,0.0315094,-0.592499,-0.212135,0.281601,0.0194168,-0.020752,-0.13401,-0.0724411,0.00793457
346,2,0,0,0,0,0,0,202.9,-304.365,-0.0795827,11.5937,-92.5717,-599.577,-43278.8,-9005.26,1433.45,183.82,372.584,0.0290353,-0.0360107,-0.316772,0.519714,0.301819,-0.0747681,-0.0228882,3.50475,-2.52042,7.88189,858.626,-1498.55,-456.947,-199.669,-305.422,-0.130892,0.0389099,-0.019989,0.0195312,-0.0732422,0.157776,-0.00350952,0.00839233,0.00442505,0.110779,0.288239,-0.15213,-0.241394,0.353088,-0.319214,-0.0698853,-0.225983,2.66449,2.66998,0.00976562,0.0590515,-0.0120544,0.0135803,0.0466919,-0.00869751,-0.0088501,0.014801,0.00274658,0.0201416,-0.0419617,-0.0279236,0,0,0,0,0,0,207.643,-1058.39,0.0770316,0.16861,0.10334,0.281868,0.140419,-0.501556,0.50827,-0.00606537,-0.0766373,-0.280876,-0.227585,-0.835533,0.745735,-0.435867,0.130005,0.00190735,0.714531,0.051384,-0.352592,0.11055,0.017128,0.22438,0.227394,-0.223923,-0.280342,0.0896835,-0.628929,-0.207253,0.304985,0.000152588,-0.0345612,-0.1371,-0.100517,0.0149536
346,3,2.935,-1.08796,4.24019,1000.87,-182.391,-235.213,202.9,-304.365,-0.0795827,11.9339,-90.7943,-596.396,-43057.7,-9214.36,1377.89,183.39,372.599,0.0287497,-0.0372314,-0.310669,0.516968,0.300293,-0.0765991,-0.0219727,3.41731,-2.87456,7.52722,593.285,-1779.17,-308.328,-199.669,-305.422,-0.130892,0.0517273,0.0190735,0.0801086,-0.128174,0.131531,0.0169373,0.00198364,-0.0141907,0.0775146,0.285797,-0.113068,-0.265045,0.322723,-0.311432,-0.0653076,-0.223846,2.68478,2.64771,-0.00793457,0.0212097,0.0271606,0.017395,0.0259399,0.0123596,0.0335693,0.00808716,0.00198364,0.0157166,-0.012207,-0.00457764,3.49964,-1.59182,3.93183,1039.87,-960.882,264.438,207.643,-1058.39,0.0770316,0.160141,0.135002,0.272217,0.140152,-0.499687,0.511398,-0.0426865,-0.0955582,-0.20195,-0.237045,-0.851707,0.74295,-0.448036,0.15274,0.0270081,0.701485,0.0114059,-0.305138,0.101357,0.0205231,0.214043,0.202446,-0.19146,-0.306625,0.025444,-0.597801,-0.183754,0.296249,0.0308609,-0.0507355,-0.172424,-0.0826263,0.00335693
346,4,0,0,0,0,0,0,202.9,-304.365,-0.0795827,11.6571,-88.5768,-594.629,-42574.4,-9106.65,1415.35,183.525,372,0.0289792,-0.0363159,-0.30304,0.515442,0.296936,-0.0756836,-0.022583,3.41689,-2.96266,8.59144,725.748,-1568.84,-326.904,-199.669,-305.422,-0.130892,0.0895691,0.0288391,0.12146,-0.152588,0.121307,0.000762939,-0.00869751,-0.0239563,0.087738,0.281677,-0.135498,-0.266113,0.350647,-0.32196,-0.0761414,-0.233612,2.63,2.63824,0.0328064,0.0187683,-0.00976562,0.0177002,0.0450134,0.0274658,0.00167847,-0.0196838,0.0378418,0.0280762,-0.0241089,-0.0419617,3.40961,-1.59246,3.57438,542.91,-1103.26,359.537,207.643,-1058.39,0.0770316,0.171585,0.165482,0.270157,0.169983,-0.496025,0.473442,-0.0377274,-0.0737,-0.265198,-0.24826,-0.803986,0.736198,-0.406075,0.149765,-0.0328064,0.712166,0.0218964,-0.326996,0.0860977,0.0548935,0.236435,0.222244,-0.247383,-0.31189,0.0401306,-0.617981,-0.17952,0.269203,0.0494003,0.0030899,-0.114403,-0.146675,-0.00366211
346,5,0,0,0,0,0,0,202.9,-304.365,-0.0795827,12.002,-87.5981,-592.155,-42399,-9000.59,1396.85,183.64,372.003,0.029054,-0.0375366,-0.299683,0.513306,0.295715,-0.0747681,-0.0222778,3.1519,-2.61033,6.10804,858.971,-1673.51,-308.204,-199.669,-305.422,-0.130892,0.149841,0.0384521,0.126343,-0.197906,0.0515747,0.0299072,0.010376,0.0160217,0.0871277,0.269623,-0.148621,-0.234985,0.354004,-0.331726,-0.0662231,-0.22171,2.65991,2.66663,-0.00778198,-0.027771,0.0166321,0.0248718,0.00244141,0.0112915,0.0160217,0.0389099,0.00274658,-0.0169373,0.0160217,-0.0212097,3.49972,-2.0361,3.93261,633.125,-925.379,245.995,207.643,-1058.39,0.0770316,0.158501,0.141258,0.264702,0.178909,-0.499039,0.517082,-0.0499725,-0.113106,-0.251694,-0.238991,-0.815239,0.714417,-0.405502,0.147552,0.0233078,0.702782,0.00793457,-0.321121,0.122833,0.0557327,0.199661,0.234833,-0.187531,-0.309029,0.00473022,-0.623245,-0.208893,0.276871,0.059433,-0.0337219,-0.156097,-0.0809097,0.000915527
346,6,2.05195,-1.79914,4.94747,957.08,-288.441,-67.8188,202.9,-304.365,-0.0795827,12.5272,-87.5945,-588.62,-41563.4,-8961.07,1546.07,183.616,371.014,0.0292712,-0.0393677,-0.299683,0.510254,0.289917,-0.0744629,-0.0247192,3.6814,-2.60808,8.94622,726.16,-1743.83,-289.675,-199.669,-305.422,-0.130892,0.160675,0.0209045,0.083313,-0.185242,0.00579834,0.0291443,0.0167847,0.0212097,0.0935364,0.307007,-0.11673,-0.260925,0.345764,-0.297699,-0.0679016,-0.223236,2.65991,2.65808,0.000610352,0.00228882,0.012207,0.0312805,0.058136,0.014801,0.000305176,0.0038147,0.0143433,0.0108337,-0.0253296,-0.0338745,3.94891,-1.50099,5.00381,678.388,-960.884,302.567,207.643,-1058.39,0.0770316,0.118599,0.112801,0.250397,0.175552,-0.489998,0.528183,-0.0436783,-0.0736237,-0.277138,-0.27977,-0.841942,0.737991,-0.397568,0.140343,0.00816345,0.700951,0.0259018,-0.352135,0.0836563,0.0315475,0.237541,0.245438,-0.226517,-0.306129,0.0688934,-0.605087,-0.233994,0.278664,0.0698471,-0.0330734,-0.0878525,-0.104103,-0.00335693
346,7,0,0,0,0,0,0,202.9,-304.365,-0.0795827,11.7318,-87.5972,-582.258,-41168.1,-8853.82,1620.64,183.634,371.106,0.0292611,-0.0366211,-0.299683,0.504761,0.28717,-0.0735474,-0.0259399,3.59353,-2.96199,9.30101,681.466,-1603.93,-252.576,-199.669,-305.422,-0.130892,0.116577,0.0317383,0.0752258,-0.17334,-0.032196,0.0241089,0.00518799,0.00823975,0.104675,0.293121,-0.321503,-0.249023,-0.0297546,0.010376,-0.0518799,-0.216675,2.6651,2.66647,-0.00442505,0.0337219,0.0115967,0.00900269,0.0131226,0.0175476,0.0152588,0.00167847,-0.00366211,-0.0280762,-0.00640869,0.000610352,3.58974,-2.03545,4.29006,994.893,-1174.3,415.698,207.643,-1058.39,0.0770316,0.137482,0.200882,0.0781631,0.11898,-0.100327,1.02898,-0.0346375,-0.251465,-0.431976,-0.447731,-0.855255,0.387459,0.265274,0.262222,0.033226,0.405464,0.0162506,-0.328865,0.115814,0.00499725,0.220375,0.210152,-0.199661,-0.272179,0.0186157,-0.613594,-0.19249,0.284538,0.00225067,-0.0518036,-0.169716,-0.093956,-0.00701904
346,8,2.31853,-1.97453,4.94796,1045.75,-358.641,-160.657,202.9,-304.365,-0.0795827,12.0856,-88.4818,-578.369,-40991.2,-9028.1,1620.8,183.23,371.276,0.0289568,-0.0378418,-0.302734,0.501404,0.28595,-0.0750732,-0.0259399,3.15086,-2.87475,8.94599,903.242,-1638.41,-363.946,-199.669,-305.422,-0.130892,0.0935364,0.0209045,-0.0323486,-0.149994,-0.0291443,0.0326538,0.0315857,0.00198364,0.119171,0.316925,-0.330963,-0.290833,-0.0296021,0.0334167,-0.0582886,-0.218048,2.66647,2.64648,0.0305176,0.0508118,-0.0180054,0.0128174,0.0146484,0.0283813,0.00427246,-0.0250244,0.0216675,0.0297546,-0.0283813,-0.0291443,0,0,0,0,0,0,207.643,-1058.39,0.0770316,0.114479,0.222282,0.100441,0.0975037,-0.0971222,1.00086,-0.0559235,-0.211754,-0.420151,-0.510597,-0.846786,0.429726,0.249901,0.243034,0.00926971,0.397453,0.0510788,-0.348244,0.0878525,0.00572205,0.245781,0.210075,-0.17437,-0.294113,0.0263596,-0.666046,-0.2034,0.297394,0.0366592,-0.0227737,-0.160789,-0.116348,0.000610352
346,9,0,0,0,0,0,0,202.9,-304.365,-0.0795827,10.7676,-89.4634,-571.654,-40023,-9093.06,1565.69,182.933,370.415,0.028965,-0.0332642,-0.306091,0.495605,0.279236,-0.0756836,-0.0250244,2.88651,-2.61111,5.75315,1080.43,-1602.96,-326.68,-199.669,-305.422,-0.130892,0.0602722,0.0218201,-0.075531,-0.137177,-0.0369263,0.00701904,0.0137329,0.00808716,0.135345,0.311584,-0.343781,-0.289459,-0.0154114,0.0253296,-0.0556946,-0.22522,2.66998,2.68738,-0.00259399,0.0450134,0.032196,0.0138855,0.0138855,0.00183105,-0.00686646,0.0309753,0.0120544,-0.0114441,-0.0247192,-0.00198364,3.58813,-2.30453,2.86032,1039.88,-925.236,283.229,207.643,-1058.39,0.0770316,0.168953,0.237885,0.107651,0.121803,-0.112305,0.980415,-0.0330734,-0.236359,-0.434685,-0.45208,-0.841217,0.41626,0.272064,0.249901,-0.0266647,0.392456,0.0310898,-1.22074,0.156517,0.00782013,0.257645,0.245209,-0.276909,-0.307541,0.07164,-0.73452,-0.197525,0.316467,-0.0205612,-0.0358582,-0.108566,-0.149307,-0.0161743
347,0,0,0,0,0,0,0,202.9,-304.365,-0.0795827,9.53512,-90.178,-563.525,-39275.8,-8983.93,1677.67,182.897,370.098,0.029016,-0.0289917,-0.308533,0.488586,0.274048,-0.0747681,-0.0268555,3.41622,-2.60897,8.2366,903.361,-1708.39,-270.994,-199.669,-305.422,-0.130892,0.0715637,0.0302124,-0.101929,-0.144958,-0.015564,0.0292969,0.00991821,-0.00610352,0.1297,0.322876,-0.307617,-0.279541,-0.0352478,0.0398254,-0.0514221,-0.208282,2.65106,2.6503,0.0376892,0.0257874,0.010376,-0.000152588,0.0215149,0.0350952,0.0248718,-0.00137329,0.00747681,0.020752,-0.00991821,-0.0427246,3.85724,-1.59301,3.21631,633.168,-1032.18,265.036,207.643,-1058.39,0.0770316,0.134621,0.216866,0.153618,0.128326,-0.0879669,1.01116,-0.0440979,-0.247917,-0.408745,-0.466537,-0.86216,0.457382,0.285721,0.262947,0.0130463,0.381508,0.0413895,-1.20014,0.0618744,0.0345612,0.25177,0.21553,-0.272522,-0.345001,0.0445175,-0.725937,-0.152931,0.310936,0.0120926,-0.0204849,-0.106354,-0.135994,-0.0012207
347,1,0,0,0,0,0,0,202.9,-304.365,-0.0795827,9.09673,-90.8008,-560.344,-39233.8,-8633.2,1900.63,183.432,370.419,0.0292912,-0.0274658,-0.310669,0.48584,0.273743,-0.0717163,-0.0305176,3.24044,-2.69844,6.46286,858.764,-1603.49,-252.47,-199.669,-305.422,-0.130892,0.012207,0.0215149,-0.169373,-0.0680542,0.0331116,-0.0120544,-0.000762939,-0.00823975,0.126953,0.303955,-0.341034,-0.289307,-0.019989,0.0326538,-0.0640869,-0.214081,2.65747,2.67303,-0.00106812,0.0115967,-0.00946045,0.00228882,0.0102234,0.0117493,0.00198364,0.0363159,0.0152588,-0.0158691,-0.0112915,0.000915527,0,0,0,0,0,0,207.643,-1058.39,0.0770316,0.115623,0.255356,0.109138,0.13237,-0.0642776,0.991898,-0.0327301,-0.237617,-0.440865,-0.495758,-0.827904,0.439072,0.269547,0.292664,0.0101852,0.395584,0.0248718,-1.23013,0.105858,0.101929,0.242081,0.260696,-0.284386,-0.350342,0.0481033,-0.747948,-0.220375,0.301971,0.0437164,-0.0387573,-0.118828,-0.121765,0.00183105
347,2,2.4919,-1.44303,5.6562,957.163,-288.469,-123.621,202.9,-304.365,-0.0795827,8.92426,-92.22,-553.981,-38397,-8839,1994.15,182.884,369.712,0.0290983,-0.0268555,-0.315552,0.480347,0.267944,-0.0735474,-0.0320435,3.14955,-2.43239,9.30057,859.275,-1813.49,-233.815,-199.669,-305.422,-0.130892,0.00518799,0.0418091,-0.187836,-0.0480652,0.0672913,0.0102234,0.0186157,-0.0265503,0.111389,0.306244,-0.332794,-0.2742,-0.0520325,0.0132751,-0.0494385,-0.234375,2.66754,2.6535,-0.00579834,0.0250244,0.00671387,-0.00854492,0.0166321,0.0456238,0.0228882,-0.00213623,0.00305176,0.000305176,-0.0115967,-0.00350952,0,0,0,0,0,0,207.643,-1058.39,0.0770316,0.133934,0.198288,0.101204,0.173798,-0.0831985,1.01364,-0.0141525,-0.262146,-0.42057,-0.479431,-0.863113,0.420341,0.298233,0.263176,0.0159836,0.42511,0.0189972,-1.22143,0.0883102,0.0246811,0.275116,0.299263,-0.286942,-0.313454,0.0117874,-0.750313,-0.174484,0.288773,0.0328064,-0.0477219,-0.0851059,-0.131645,-0.00946045
347,3,0,0,0,0,0,0,202.9,-304.365,-0.0795827,8.31102,-93.5527,-546.559,-37520.2,-8273.61,2050.34,183.702,369.049,0.0297902,-0.0247192,-0.320129,0.473938,0.261841,-0.0686646,-0.032959,3.4171,-2.96277,8.23671,858.797,-1603.5,-308.227,-199.669,-305.422,-0.130892,-0.0268555,0.0109863,-0.187988,0.0154114,0.0804138,0.00488281,0.00717163,-0.00595093,0.127411,0.30365,-0.347443,-0.29068,-0.0419617,0.0138855,-0.0697327,-0.2388,2.66342,2.68219,0.020752,-0.01297,-0.00701904,0.00640869,0.00976562,0.00686646,0.0242615,0.0334167,0.00244141,0.0012207,-0.0469971,-0.0247192,3.67809,-1.94846,3.21714,723.601,-960.842,321.368,207.643,-1058.39,0.0770316,0.0708389,0.231438,0.125694,0.137482,-0.101624,1.03546,-0.030632,-0.252151,-0.398979,-0.513229,-0.841789,0.425911,0.267258,0.263062,0.0355148,0.393219,0.0500107,-1.25,0.0909805,0.0256348,0.227852,0.264053,-0.296555,-0.302963,0.0727081,-0.734558,-0.232048,0.281754,0.0273514,-0.0120926,-0.132103,-0.11425,0.00579834
347,4,0,0,0,0,0,0,202.9,-304.365,-0.0795827,7.34233,-94.3544,-537.722,-37342.6,-8588.06,2087.7,182.868,369.847,0.0290562,-0.0213623,-0.322876,0.466309,0.26062,-0.0714111,-0.0335693,3.50737,-3.31682,6.81795,947.239,-1533.26,-252.439,-199.669,-305.422,-0.130892,-0.04776,0.00976562,-0.138092,-0.0311279,0.0279236,0.0227356,-0.000915527,-0.00534058,0.106506,0.30838,-0.417786,-0.22583,0.0650024,-0.0120544,-0.0575256,-0.46463,2.66144,2.6149,0.00350952,0.0256348,0.0169373,-0.0178528,-0.0239563,0.0259399,0.0152588,0.00534058,-0.0146484,-0.0137329,0.015564,-0.0138855,3.85724,-1.59301,3.21631,633.107,-1174.77,189.871,207.643,-1058.39,0.0770316,-0.201263,0.208206,0.1297,0.311852,0.0183487,0.777588,-0.0336075,-0.267105,-0.816307,-0.743103,-0.467949,0.185204,0.00587463,0.296669,0.0174713,0.233917,0.0403595,-1.18649,0.0906754,0.0239944,0.223274,0.241089,-0.299492,-0.315971,0.0757599,-0.708694,-0.21431,0.307961,-0.0227737,-0.0255585,-0.104294,-0.120087,-0.0106812
347,5,0,0,0,0,0,0,202.9,-304.365,-0.0795827,6.81325,-95.0652,-529.593,-36373.9,-8758.1,2237.06,182.302,369.084,0.0288649,-0.0195312,-0.325317,0.45929,0.253906,-0.072937,-0.0360107,3.15213,-2.87545,6.8176,859.06,-1673.56,-456.889,-199.669,-305.422,-0.130892,-0.0164795,0.00900269,-0.13504,-0.0463867,-0.0585938,0.00305176,0.0105286,-0.00335693,0.119934,0.288696,-0.427551,-0.211792,0.0700378,0.0166321,-0.063324,-0.455475,2.64816,2.69745,0.00564575,-0.0616455,0.00473022,0.0479126,0.00839233,-0.0259399,-0.0038147,0.0369263,0.032959,-0.0137329,-0.0100708,-0.0204468,3.4992,-1.50359,3.57412,723.562,-1103.39,265.057,207.643,-1058.39,0.0770316,-0.190353,0.182838,0.189323,0.298157,-0.00774384,0.779305,-0.0328827,-0.287094,-0.824203,-0.717468,-0.454025,0.245781,-0.0245667,0.245857,0.0209427,0.246086,0.0485229,-1.22196,0.0872421,0.0488281,0.244102,0.234795,-0.285797,-0.344086,0.0545883,-0.581512,-0.227242,0.345154,-0.000534058,-0.0299072,-0.156136,-0.157318,0.0134277
347,6,0,0,0,0,0,0,202.9,-304.365,-0.0795827,6.46026,-95.9523,-520.403,-35759.5,-8474.5,2144.47,182.555,369.116,0.0290231,-0.0183105,-0.328369,0.451355,0.249634,-0.0704956,-0.0344849,2.79757,-2.8761,7.52685,814.19,-1498.6,-271.116,-199.669,-305.422,-0.130892,0.03479,0.0590515,-0.0978088,0.00686646,-0.0950623,0.00564575,0.0112915,-0.0140381,0.119934,0.314636,-0.387878,-0.210876,0.0576782,-0.0453186,-0.0717163,-0.439758,2.67731,2.66296,0.00900269,-0.0224304,0.0288391,0,-0.0141907,0.0193787,0.0317383,0.00564575,-0.0149536,-0.0190735,0.0119019,-0.0253296,0,0,0,0,0,0,207.643,-1058.39,0.0770316,-0.166283,0.186386,0.174179,0.301476,0.0186539,0.728683,-0.0682831,-0.304642,-0.829964,-0.712891,-0.472984,0.207901,-0.0387955,0.306168,0.0182724,0.209274,0.0119019,-1.25,0.122681,0.000457764,0.349121,0.235519,-0.310745,-0.329437,0.0396729,-0.656776,-0.198479,0.417671,-0.0193405,-0.00831604,-0.122604,-0.160217,0.00610352
347,7,0,0,0,0,0,0,202.9,-304.365,-0.0795827,6.37166,-96.2183,-517.221,-35054.6,-8681,2219.32,182.055,368.176,0.0289173,-0.0180054,-0.329285,0.448608,0.244751,-0.0723267,-0.0357056,2.88587,-2.61076,6.81735,858.624,-1533.5,-308.25,-199.669,-305.422,-0.130892,0.00518799,0.0387573,-0.0491333,0.0201416,-0.0125122,0.0119019,0.00320435,-0.0131226,0.135956,0.309296,-0.396271,-0.194092,0.088501,0.0137329,-0.0634766,-0.448303,2.64648,2.67242,-0.00488281,0.0117493,0.0131226,-0.00457764,0.0183105,0.00686646,-0.00442505,0.0154114,0.0141907,-0.0193787,-0.0112915,-0.0163269,0,0,0,0,0,0,207.643,-1058.39,0.0770316,-0.215874,0.19043,0.223961,0.335236,0.0195694,0.762863,-0.0365829,-0.320816,-0.840302,-0.742798,-0.461998,0.242386,-0.0215912,0.288734,0.0199509,0.234947,0.0459671,-1.25,0.0831223,0.0319672,0.393066,0.222168,-0.294991,-0.325432,0.049057,-0.630722,-0.182076,0.33493,-0.0174713,0.0417709,-0.116577,-0.187798,-0.0195312
347,8,0,0,0,0,0,0,202.9,-304.365,-0.0795827,6.54992,-97.2811,-512.273,-34573.1,-8222.86,2200.94,182.788,367.89,0.0294642,-0.0186157,-0.332947,0.444336,0.241394,-0.0683594,-0.0354004,3.59328,-2.5202,7.88194,770.148,-1603.72,-308.28,-199.669,-305.422,-0.130892,0.00946045,0.0299072,-0.0462341,0.0590515,-0.151978,0.0138855,0.0236511,-0.0184631,0.106354,0.303497,-0.378113,-0.180511,0.0756836,0.000305176,-0.050354,-0.439911,2.67181,2.66098,0.0132751,0.00274658,0.0508118,0.0152588,-0.0158691,0.0163269,0.0360107,0.0213623,-0.0088501,-0.0184631,0.0456238,-0.0111389,3.94728,-1.68122,3.57391,723.592,-1032.1,302.639,207.643,-1058.39,0.0770316,-0.224457,0.185318,0.159073,0.299149,0.0614929,0.7724,-0.0352478,-0.306168,-0.849571,-0.741959,-0.467491,0.205727,-0.0220871,0.334892,0.0341034,0.237923,0.011673,-1.25,0.103912,0.0545883,0.352707,0.241203,-0.244293,-0.345421,0.0603104,-0.646248,-0.227661,0.384598,-0.000648499,-0.0343323,-0.141335,-0.127144,0.00976562
347,9,0,0,0,0,0,0,202.9,-304.365,-0.0795827,6.81708,-98.7866,-505.203,-34177.1,-8255.77,2368.47,182.498,368.051,0.0292366,-0.0195312,-0.338135,0.438232,0.238647,-0.0686646,-0.038147,3.77015,-2.60798,8.59154,947.141,-1498.25,-233.865,-199.669,-305.422,-0.130892,0.0192261,0.0405884,-0.0524902,0.057373,-0.228119,-0.00656128,-0.00579834,-0.0280762,0.135651,0.326996,-0.425873,-0.214233,0.0828552,0.00808716,-0.0497437,-0.443573,2.65793,2.67593,0.0143433,-0.00427246,0.00473022,0.0137329,0.0238037,0.0382996,-0.01297,0.0123596,0.0218201,0.00335693,0.0167847,-0.0183105,0,0,0,0,0,0,207.643,-1058.39,0.0770316,-0.200081,0.186958,0.176315,0.314255,-0.00675201,0.741959,0.0117493,-0.285912,-0.830231,-0.744133,-0.483284,0.188675,-0.0159073,0.27565,0.0146103,0.286217,-0.00946045,-1.25,0.0539398,0.0199509,0.354996,0.279694,-0.284576,-0.339966,0.060997,-0.664139,-0.202255,0.364037,-0.0130081,-0.00598907,-0.0912094,-0.174179,0.00793457
348,0,0,0,0,0,0,0,202.9,-304.365,-0.0795827,6.11654,-99.4114,-504.496,-33120,-8495.48,2294.88,182,366.05,0.0293815,-0.0170898,-0.340271,0.437622,0.231323,-0.0708008,-0.0369263,3.41534,-2.25517,8.23648,1168.98,-1532.78,-456.75,-199.669,-305.422,-0.130892,-0.0117493,0.0187683,-0.0471497,0.0535583,-0.0804138,0.0126648,0.0140381,-0.0302124,0.108643,0.293427,-0.404663,-0.184326,0.0814819,-0.0152588,-0.0521851,-0.441437,2.66617,2.67166,-0.00854492,0.0115967,0.0289917,0.0105286,0.00183105,0.00793457,0.0300598,0.0326538,0.012207,-0.0204468,-0.000610352,-0.000610352,0,0,0,0,0,0,207.643,-1058.39,0.0770316,-0.20565,0.198746,0.188828,0.297432,0.00572205,0.792503,-0.0309753,-0.317459,-0.800591,-0.740891,-0.47123,0.208664,-0.0285339,0.283508,0.0466537,0.235558,0.0300217,-1.25,0.0869751,0.0208664,0.340843,0.235176,-0.259705,-0.274086,0.00873566,-0.633011,-0.194855,0.331459,-0.0106812,-0.0300217,-0.139351,-0.13092,0.00762939
348,1,0,0,0,0,0,0,202.9,-304.365,-0.0795827,6.64463,-100.383,-497.426,-33077.4,-8249.88,2536.45,182.254,366.897,0.0293486,-0.0189209,-0.343628,0.431519,0.231018,-0.0686646,-0.0408936,3.24023,-2.69833,6.81759,903.22,-1638.4,-326.774,-199.669,-305.422,-0.130892,-0.0012207,0.015564,-0.0776672,0.0172424,0.039978,0.0337219,0.019989,-0.0393677,-0.0657654,0.185242,0.0354004,-0.103912,-0.0244141,0.164337,-0.0421143,-0.291748,2.65839,2.65656,0.0294495,0.0140381,0.00793457,-0.0088501,0.00640869,0.0230408,-0.0166321,0.0134277,0.0233459,-0.0062561,0.0166321,-0.00534058,3.32092,-2.0355,4.29038,994.65,-818.44,264.24,207.643,-1058.39,0.0770316,-0.230484,0.0716019,-0.0334549,0.357704,0.111351,-0.0601196,-0.0479507,0.103264,-0.794907,-0.463524,-0.222321,0.0808334,-0.111313,0.17807,0.0037384,0.0378036,0.0597763,-1.25,0.0983047,-0.000305176,0.337791,0.245972,-0.295982,-0.349846,0.0555038,-0.592957,-0.206261,0.338326,-0.0368881,-0.0350189,-0.114059,-0.169182,0.0125122
348,2,2.67195,-1.70777,4.59423,1000.62,-182.309,-67.8063,202.9,-304.365,-0.0795827,6.7399,-102.157,-494.245,-32503.8,-8562.26,2462.56,181.515,366.165,0.0290371,-0.0192261,-0.349731,0.428772,0.227051,-0.0714111,-0.0396729,2.79691,-2.61075,7.52676,902.589,-1393.38,-289.684,-199.669,-305.422,-0.130892,-0.0311279,0.00930786,-0.0547791,0.0102234,-0.00915527,0.00991821,0.00808716,0.0234985,-0.0863647,0.147552,0.0370789,-0.0675964,-0.0285339,0.141296,-0.0776672,-0.273132,2.66449,2.69394,0.0134277,0.018158,0.0311279,0.00457764,0.0146484,-0.0105286,0.0376892,0.0202942,-0.000915527,-0.0202942,0.00656128,0.0285339,3.32087,-1.76893,4.28991,994.714,-925.212,302.136,207.643,-1058.39,0.0770316,-0.19928,0.0691223,-0.0205612,0.348816,0.0615692,-0.0401688,-0.0244141,0.0553513,-0.835114,-0.424042,-0.245132,0.091095,-0.0880814,0.169296,0.032196,0.0652313,0.0397491,-1.25,0.0997925,0.0315857,0.346375,0.193634,-0.3088,-0.305214,0.0587463,0.0477982,-0.211067,0.482979,-0.00850677,0.00324249,-0.164337,-0.195236,0.00335693
